{
    "resourceType": "Bundle",
    "type": "transaction",
    "entry": [
        {
            "fullUrl": "urn:uuid:06c744c1-9556-4085-8d4f-8deda713ba63",
            "resource": {
                "resourceType": "ServiceRequest",
                "id": "06c744c1-9556-4085-8d4f-8deda713ba63",
                "meta": {
                    "tag": [
                        {
                            "system": "https://genomicsengland.co.uk/workspace_id",
                            "code": "mr383",
                            "display": "workspace_id"
                        }
                    ]
                },
                "identifier": [
                    {
                        "system": "https://genomicsengland.co.uk/ngis-referral-id",
                        "value": "r30000000001"
                    }
                ],
                "status": "active",
                "intent": "order",
                "category": [
                    {
                        "coding": [
                            {
                                "system": "https://fhir.hl7.org.uk/CodeSystem/UKCore-GenomeSequencingCategory",
                                "code": "rare-disease-wgs",
                                "display": "Rare Disease - WGS"
                            }
                        ]
                    }
                ],
                "code": {
                    "coding": [
                        {
                            "system": "https://fhir.nhs.uk/CodeSystem/England-GenomicTestDirectory",
                            "version": "7",
                            "code": "R29.4",
                            "display": "Intellectual disability WGS"
                        }
                    ]
                },
                "orderDetail": [
                    {
                        "coding": [
                            {
                                "system": "https://fhir.nhs.uk/CodeSystem/England-GenomicTestDirectory",
                                "version": "7",
                                "code": "R29",
                                "display": "Intellectual disability"
                            }
                        ]
                    }
                ],
                "subject": {
                    "reference": "urn:uuid:394cc903-8629-450d-ba42-d22620382edb",
                    "identifier": {
                        "system": "https://genomicsengland.co.uk/ngis-participant-id",
                        "value": "p12345678301"
                    }
                },
                "performer": [
                    {
                        "identifier": {
                            "system": "https://fhir.nhs.uk/Id/ods-organization-code",
                            "value": "RHM"
                        }
                    }
                ],
                "reasonCode": [
                    {
                        "coding": [
                            {
                                "system": "https://fhir.nhs.uk/CodeSystem/reasonfortesting-genomics",
                                "code": "diagnostic",
                                "display": "Diagnostic"
                            }
                        ]
                    }
                ],
                "supportingInfo": [
                    {
                        "reference": "urn:uuid:8d74489b-f6cf-469f-a094-cfd33e745128"
                    },
                    {
                        "reference": "urn:uuid:359a295b-33cd-4ec0-864b-e473a59a5e73"
                    },
                    {
                        "reference": "urn:uuid:6eb2f71f-b188-429a-9e5a-db327e7cad10"
                    },
                    {
                        "reference": "urn:uuid:a91b3442-8c79-42c1-a757-8925d5dc2d3e"
                    },
                    {
                        "reference": "urn:uuid:6ef8d6ce-db9a-4ff4-8eb8-34fceeae6f51"
                    },
                    {
                        "reference": "urn:uuid:0f377d42-2cfc-49b9-852f-79c383a2e3ff"
                    },
                    {
                        "reference": "urn:uuid:b3117174-d170-4c13-9404-fb31b534ccbb"
                    },
                    {
                        "reference": "urn:uuid:b44cb8dc-cafc-42ba-ba1d-000e15a13f3a"
                    },
                    {
                        "reference": "urn:uuid:c3587d05-68a0-4015-ad2a-e1a46db4fd41"
                    }
                ]
            },
            "request": {
                "method": "POST",
                "url": "ServiceRequest"
            }
        },
        {
            "fullUrl": "urn:uuid:56118d9f-a505-4597-b1fc-a697318976b8",
            "resource": {
                "resourceType": "Specimen",
                "id": "56118d9f-a505-4597-b1fc-a697318976b8",
                "meta": {
                    "tag": [
                        {
                            "system": "https://genomicsengland.co.uk/workspace_id",
                            "code": "mr383",
                            "display": "workspace_id"
                        }
                    ]
                },
                "identifier": [
                    {
                        "system": "https://genomicsengland.co.uk/ngis-sample-id",
                        "value": "LP1000000-DNA_B05"
                    },
                    {
                        "system": "https://genomicsengland.co.uk/ngis-lab-sample-id",
                        "value": "1020304301"
                    }
                ],
                "status": "available",
                "type": {
                    "coding": [
                        {
                            "system": "http://snomed.info/sct",
                            "code": "445295009",
                            "display": "Blood specimen with EDTA"
                        }
                    ]
                },
                "subject": {
                    "reference": "urn:uuid:394cc903-8629-450d-ba42-d22620382edb",
                    "identifier": {
                        "system": "https://genomicsengland.co.uk/ngis-participant-id",
                        "value": "p12345678301"
                    }
                },
                "request": [
                    {
                        "reference": "urn:uuid:06c744c1-9556-4085-8d4f-8deda713ba63",
                        "identifier": {
                            "system": "https://genomicsengland.co.uk/ngis-referral-id",
                            "value": "r30000000001"
                        }
                    }
                ],
                "collection": {
                    "collectedDateTime": "2022-05-29T00:10:00+00:00"
                }
            },
            "request": {
                "method": "POST",
                "url": "Specimen"
            }
        },
        {
            "fullUrl": "urn:uuid:b36fdd1f-1dc1-419d-90cd-15d9599324ed",
            "resource": {
                "resourceType": "Specimen",
                "id": "b36fdd1f-1dc1-419d-90cd-15d9599324ed",
                "meta": {
                    "tag": [
                        {
                            "system": "https://genomicsengland.co.uk/workspace_id",
                            "code": "mr383",
                            "display": "workspace_id"
                        }
                    ]
                },
                "identifier": [
                    {
                        "system": "https://genomicsengland.co.uk/ngis-sample-id",
                        "value": "LP1000000-DNA_E11"
                    },
                    {
                        "system": "https://genomicsengland.co.uk/ngis-lab-sample-id",
                        "value": "1020304302"
                    }
                ],
                "status": "available",
                "type": {
                    "coding": [
                        {
                            "system": "http://snomed.info/sct",
                            "code": "445295009",
                            "display": "Blood specimen with EDTA"
                        }
                    ]
                },
                "subject": {
                    "reference": "urn:uuid:81a1bd97-4301-4e16-8124-f605278911eb",
                    "identifier": {
                        "system": "https://genomicsengland.co.uk/ngis-participant-id",
                        "value": "p12345678302"
                    }
                },
                "request": [
                    {
                        "reference": "urn:uuid:06c744c1-9556-4085-8d4f-8deda713ba63",
                        "identifier": {
                            "system": "https://genomicsengland.co.uk/ngis-referral-id",
                            "value": "r30000000001"
                        }
                    }
                ],
                "collection": {
                    "collectedDateTime": "2022-05-29T00:10:00+00:00"
                }
            },
            "request": {
                "method": "POST",
                "url": "Specimen"
            }
        },
        {
            "fullUrl": "urn:uuid:aeeec8c8-d2be-44f9-b0e4-d941e5cb594b",
            "resource": {
                "resourceType": "Specimen",
                "id": "aeeec8c8-d2be-44f9-b0e4-d941e5cb594b",
                "meta": {
                    "tag": [
                        {
                            "system": "https://genomicsengland.co.uk/workspace_id",
                            "code": "mr383",
                            "display": "workspace_id"
                        }
                    ]
                },
                "identifier": [
                    {
                        "system": "https://genomicsengland.co.uk/ngis-sample-id",
                        "value": "LP1000000-DNA_B07"
                    },
                    {
                        "system": "https://genomicsengland.co.uk/ngis-lab-sample-id",
                        "value": "1020304303"
                    }
                ],
                "status": "available",
                "type": {
                    "coding": [
                        {
                            "system": "http://snomed.info/sct",
                            "code": "445295009",
                            "display": "Blood specimen with EDTA"
                        }
                    ]
                },
                "subject": {
                    "reference": "urn:uuid:95fa3518-51cf-4401-8147-e3b872738c19",
                    "identifier": {
                        "system": "https://genomicsengland.co.uk/ngis-participant-id",
                        "value": "p12345678303"
                    }
                },
                "request": [
                    {
                        "reference": "urn:uuid:06c744c1-9556-4085-8d4f-8deda713ba63",
                        "identifier": {
                            "system": "https://genomicsengland.co.uk/ngis-referral-id",
                            "value": "r30000000001"
                        }
                    }
                ],
                "collection": {
                    "collectedDateTime": "2022-05-29T00:10:00+00:00"
                }
            },
            "request": {
                "method": "POST",
                "url": "Specimen"
            }
        },
        {
            "fullUrl": "urn:uuid:394cc903-8629-450d-ba42-d22620382edb",
            "resource": {
                "resourceType": "Patient",
                "id": "394cc903-8629-450d-ba42-d22620382edb",
                "meta": {
                    "tag": [
                        {
                            "system": "https://genomicsengland.co.uk/workspace_id",
                            "code": "mr383",
                            "display": "workspace_id"
                        }
                    ]
                },
                "extension": [
                    {
                        "url": "https://fhir.hl7.org.uk/StructureDefinition/Extension-UKCore-BirthSex",
                        "valueCodeableConcept": {
                            "coding": [
                                {
                                    "system": "http://terminology.hl7.org/CodeSystem/v3-AdministrativeGender",
                                    "code": "M",
                                    "display": "Male"
                                }
                            ]
                        }
                    }
                ],
                "identifier": [
                    {
                        "system": "https://genomicsengland.co.uk/ngis-participant-id",
                        "value": "p12345678301"
                    }
                ],
                "birthDate": "1968",
                "deceasedBoolean": false
            },
            "request": {
                "method": "POST",
                "url": "Patient"
            }
        },
        {
            "fullUrl": "urn:uuid:81a1bd97-4301-4e16-8124-f605278911eb",
            "resource": {
                "resourceType": "Patient",
                "id": "81a1bd97-4301-4e16-8124-f605278911eb",
                "meta": {
                    "tag": [
                        {
                            "system": "https://genomicsengland.co.uk/workspace_id",
                            "code": "mr383",
                            "display": "workspace_id"
                        }
                    ]
                },
                "extension": [
                    {
                        "url": "https://fhir.hl7.org.uk/StructureDefinition/Extension-UKCore-BirthSex",
                        "valueCodeableConcept": {
                            "coding": [
                                {
                                    "system": "http://terminology.hl7.org/CodeSystem/v3-AdministrativeGender",
                                    "code": "M",
                                    "display": "Male"
                                }
                            ]
                        }
                    }
                ],
                "identifier": [
                    {
                        "system": "https://genomicsengland.co.uk/ngis-participant-id",
                        "value": "p12345678302"
                    }
                ],
                "birthDate": "1942",
                "deceasedBoolean": false,
                "link": [
                    {
                        "other": {
                            "reference": "urn:uuid:3f4c8784-2a2f-4b7c-ad27-7d062162fb37"
                        },
                        "type": "seealso"
                    }
                ]
            },
            "request": {
                "method": "POST",
                "url": "Patient"
            }
        },
        {
            "fullUrl": "urn:uuid:95fa3518-51cf-4401-8147-e3b872738c19",
            "resource": {
                "resourceType": "Patient",
                "id": "95fa3518-51cf-4401-8147-e3b872738c19",
                "meta": {
                    "tag": [
                        {
                            "system": "https://genomicsengland.co.uk/workspace_id",
                            "code": "mr383",
                            "display": "workspace_id"
                        }
                    ]
                },
                "extension": [
                    {
                        "url": "https://fhir.hl7.org.uk/StructureDefinition/Extension-UKCore-BirthSex",
                        "valueCodeableConcept": {
                            "coding": [
                                {
                                    "system": "http://terminology.hl7.org/CodeSystem/v3-AdministrativeGender",
                                    "code": "F",
                                    "display": "Female"
                                }
                            ]
                        }
                    }
                ],
                "identifier": [
                    {
                        "system": "https://genomicsengland.co.uk/ngis-participant-id",
                        "value": "p12345678303"
                    }
                ],
                "birthDate": "1942",
                "deceasedBoolean": false,
                "link": [
                    {
                        "other": {
                            "reference": "urn:uuid:a3166c48-5c47-425a-8e1c-6dd3cb3e886a"
                        },
                        "type": "seealso"
                    }
                ]
            },
            "request": {
                "method": "POST",
                "url": "Patient"
            }
        },
        {
            "fullUrl": "urn:uuid:3f4c8784-2a2f-4b7c-ad27-7d062162fb37",
            "resource": {
                "resourceType": "RelatedPerson",
                "id": "3f4c8784-2a2f-4b7c-ad27-7d062162fb37",
                "meta": {
                    "tag": [
                        {
                            "system": "https://genomicsengland.co.uk/workspace_id",
                            "code": "mr383",
                            "display": "workspace_id"
                        }
                    ]
                },
                "identifier": [
                    {
                        "system": "https://genomicsengland.co.uk/ngis-participant-id",
                        "value": "p12345678302"
                    }
                ],
                "patient": {
                    "reference": "urn:uuid:394cc903-8629-450d-ba42-d22620382edb",
                    "identifier": {
                        "system": "https://genomicsengland.co.uk/ngis-participant-id",
                        "value": "p12345678301"
                    }
                },
                "relationship": [
                    {
                        "coding": [
                            {
                                "system": "http://terminology.hl7.org/CodeSystem/v3-RoleCode",
                                "code": "FTH",
                                "display": "father"
                            }
                        ]
                    }
                ]
            },
            "request": {
                "method": "POST",
                "url": "RelatedPerson"
            }
        },
        {
            "fullUrl": "urn:uuid:a3166c48-5c47-425a-8e1c-6dd3cb3e886a",
            "resource": {
                "resourceType": "RelatedPerson",
                "id": "a3166c48-5c47-425a-8e1c-6dd3cb3e886a",
                "meta": {
                    "tag": [
                        {
                            "system": "https://genomicsengland.co.uk/workspace_id",
                            "code": "mr383",
                            "display": "workspace_id"
                        }
                    ]
                },
                "identifier": [
                    {
                        "system": "https://genomicsengland.co.uk/ngis-participant-id",
                        "value": "p12345678303"
                    }
                ],
                "patient": {
                    "reference": "urn:uuid:394cc903-8629-450d-ba42-d22620382edb",
                    "identifier": {
                        "system": "https://genomicsengland.co.uk/ngis-participant-id",
                        "value": "p12345678301"
                    }
                },
                "relationship": [
                    {
                        "coding": [
                            {
                                "system": "http://terminology.hl7.org/CodeSystem/v3-RoleCode",
                                "code": "MTH",
                                "display": "mother"
                            }
                        ]
                    }
                ]
            },
            "request": {
                "method": "POST",
                "url": "RelatedPerson"
            }
        },
        {
            "fullUrl": "urn:uuid:8d74489b-f6cf-469f-a094-cfd33e745128",
            "resource": {
                "resourceType": "Observation",
                "id": "8d74489b-f6cf-469f-a094-cfd33e745128",
                "meta": {
                    "tag": [
                        {
                            "system": "https://genomicsengland.co.uk/workspace_id",
                            "code": "mr383",
                            "display": "workspace_id"
                        }
                    ]
                },
                "status": "final",
                "code": {
                    "coding": [
                        {
                            "system": "http://human-phenotype-ontology.org",
                            "version": "releases/2018-10-09",
                            "code": "HP:0000729"
                        }
                    ]
                },
                "subject": {
                    "reference": "urn:uuid:394cc903-8629-450d-ba42-d22620382edb",
                    "identifier": {
                        "system": "https://genomicsengland.co.uk/ngis-participant-id",
                        "value": "p12345678301"
                    }
                }
            },
            "request": {
                "method": "POST",
                "url": "Observation"
            }
        },
        {
            "fullUrl": "urn:uuid:359a295b-33cd-4ec0-864b-e473a59a5e73",
            "resource": {
                "resourceType": "Observation",
                "id": "359a295b-33cd-4ec0-864b-e473a59a5e73",
                "meta": {
                    "tag": [
                        {
                            "system": "https://genomicsengland.co.uk/workspace_id",
                            "code": "mr383",
                            "display": "workspace_id"
                        }
                    ]
                },
                "status": "final",
                "code": {
                    "coding": [
                        {
                            "system": "http://human-phenotype-ontology.org",
                            "version": "releases/2018-10-09",
                            "code": "HP:0011198"
                        }
                    ]
                },
                "subject": {
                    "reference": "urn:uuid:394cc903-8629-450d-ba42-d22620382edb",
                    "identifier": {
                        "system": "https://genomicsengland.co.uk/ngis-participant-id",
                        "value": "p12345678301"
                    }
                }
            },
            "request": {
                "method": "POST",
                "url": "Observation"
            }
        },
        {
            "fullUrl": "urn:uuid:6eb2f71f-b188-429a-9e5a-db327e7cad10",
            "resource": {
                "resourceType": "Observation",
                "id": "6eb2f71f-b188-429a-9e5a-db327e7cad10",
                "meta": {
                    "tag": [
                        {
                            "system": "https://genomicsengland.co.uk/workspace_id",
                            "code": "mr383",
                            "display": "workspace_id"
                        }
                    ]
                },
                "status": "final",
                "code": {
                    "coding": [
                        {
                            "system": "http://github.com/phenopackets/core-ig/CodeSystem/observation-karyotypic-sex",
                            "code": "UNKNOWN"
                        }
                    ]
                },
                "subject": {
                    "reference": "urn:uuid:394cc903-8629-450d-ba42-d22620382edb",
                    "identifier": {
                        "system": "https://genomicsengland.co.uk/ngis-participant-id",
                        "value": "p12345678301"
                    }
                }
            },
            "request": {
                "method": "POST",
                "url": "Observation"
            }
        },
        {
            "fullUrl": "urn:uuid:a91b3442-8c79-42c1-a757-8925d5dc2d3e",
            "resource": {
                "resourceType": "Observation",
                "id": "a91b3442-8c79-42c1-a757-8925d5dc2d3e",
                "meta": {
                    "tag": [
                        {
                            "system": "https://genomicsengland.co.uk/workspace_id",
                            "code": "mr383",
                            "display": "workspace_id"
                        }
                    ]
                },
                "status": "final",
                "code": {
                    "coding": [
                        {
                            "system": "http://human-phenotype-ontology.org",
                            "version": "releases/2018-10-09",
                            "code": "HP:0000729"
                        }
                    ]
                },
                "subject": {
                    "reference": "urn:uuid:81a1bd97-4301-4e16-8124-f605278911eb",
                    "identifier": {
                        "system": "https://genomicsengland.co.uk/ngis-participant-id",
                        "value": "p12345678302"
                    }
                }
            },
            "request": {
                "method": "POST",
                "url": "Observation"
            }
        },
        {
            "fullUrl": "urn:uuid:6ef8d6ce-db9a-4ff4-8eb8-34fceeae6f51",
            "resource": {
                "resourceType": "Observation",
                "id": "6ef8d6ce-db9a-4ff4-8eb8-34fceeae6f51",
                "meta": {
                    "tag": [
                        {
                            "system": "https://genomicsengland.co.uk/workspace_id",
                            "code": "mr383",
                            "display": "workspace_id"
                        }
                    ]
                },
                "status": "final",
                "code": {
                    "coding": [
                        {
                            "system": "http://human-phenotype-ontology.org",
                            "version": "releases/2018-10-09",
                            "code": "HP:0011198"
                        }
                    ]
                },
                "subject": {
                    "reference": "urn:uuid:81a1bd97-4301-4e16-8124-f605278911eb",
                    "identifier": {
                        "system": "https://genomicsengland.co.uk/ngis-participant-id",
                        "value": "p12345678302"
                    }
                }
            },
            "request": {
                "method": "POST",
                "url": "Observation"
            }
        },
        {
            "fullUrl": "urn:uuid:0f377d42-2cfc-49b9-852f-79c383a2e3ff",
            "resource": {
                "resourceType": "Observation",
                "id": "0f377d42-2cfc-49b9-852f-79c383a2e3ff",
                "meta": {
                    "tag": [
                        {
                            "system": "https://genomicsengland.co.uk/workspace_id",
                            "code": "mr383",
                            "display": "workspace_id"
                        }
                    ]
                },
                "status": "final",
                "code": {
                    "coding": [
                        {
                            "system": "http://github.com/phenopackets/core-ig/CodeSystem/observation-karyotypic-sex",
                            "code": "UNKNOWN"
                        }
                    ]
                },
                "subject": {
                    "reference": "urn:uuid:81a1bd97-4301-4e16-8124-f605278911eb",
                    "identifier": {
                        "system": "https://genomicsengland.co.uk/ngis-participant-id",
                        "value": "p12345678302"
                    }
                }
            },
            "request": {
                "method": "POST",
                "url": "Observation"
            }
        },
        {
            "fullUrl": "urn:uuid:b3117174-d170-4c13-9404-fb31b534ccbb",
            "resource": {
                "resourceType": "Observation",
                "id": "b3117174-d170-4c13-9404-fb31b534ccbb",
                "meta": {
                    "tag": [
                        {
                            "system": "https://genomicsengland.co.uk/workspace_id",
                            "code": "mr383",
                            "display": "workspace_id"
                        }
                    ]
                },
                "status": "final",
                "code": {
                    "coding": [
                        {
                            "system": "http://human-phenotype-ontology.org",
                            "version": "releases/2018-10-09",
                            "code": "HP:0000729"
                        }
                    ]
                },
                "subject": {
                    "reference": "urn:uuid:95fa3518-51cf-4401-8147-e3b872738c19",
                    "identifier": {
                        "system": "https://genomicsengland.co.uk/ngis-participant-id",
                        "value": "p12345678303"
                    }
                }
            },
            "request": {
                "method": "POST",
                "url": "Observation"
            }
        },
        {
            "fullUrl": "urn:uuid:b44cb8dc-cafc-42ba-ba1d-000e15a13f3a",
            "resource": {
                "resourceType": "Observation",
                "id": "b44cb8dc-cafc-42ba-ba1d-000e15a13f3a",
                "meta": {
                    "tag": [
                        {
                            "system": "https://genomicsengland.co.uk/workspace_id",
                            "code": "mr383",
                            "display": "workspace_id"
                        }
                    ]
                },
                "status": "final",
                "code": {
                    "coding": [
                        {
                            "system": "http://human-phenotype-ontology.org",
                            "version": "releases/2018-10-09",
                            "code": "HP:0011198"
                        }
                    ]
                },
                "subject": {
                    "reference": "urn:uuid:95fa3518-51cf-4401-8147-e3b872738c19",
                    "identifier": {
                        "system": "https://genomicsengland.co.uk/ngis-participant-id",
                        "value": "p12345678303"
                    }
                }
            },
            "request": {
                "method": "POST",
                "url": "Observation"
            }
        },
        {
            "fullUrl": "urn:uuid:c3587d05-68a0-4015-ad2a-e1a46db4fd41",
            "resource": {
                "resourceType": "Observation",
                "id": "c3587d05-68a0-4015-ad2a-e1a46db4fd41",
                "meta": {
                    "tag": [
                        {
                            "system": "https://genomicsengland.co.uk/workspace_id",
                            "code": "mr383",
                            "display": "workspace_id"
                        }
                    ]
                },
                "status": "final",
                "code": {
                    "coding": [
                        {
                            "system": "http://github.com/phenopackets/core-ig/CodeSystem/observation-karyotypic-sex",
                            "code": "UNKNOWN"
                        }
                    ]
                },
                "subject": {
                    "reference": "urn:uuid:95fa3518-51cf-4401-8147-e3b872738c19",
                    "identifier": {
                        "system": "https://genomicsengland.co.uk/ngis-participant-id",
                        "value": "p12345678303"
                    }
                }
            },
            "request": {
                "method": "POST",
                "url": "Observation"
            }
        },
        {
            "fullUrl": "urn:uuid:3cb2e853-a982-4867-91dc-b71e0f6705e6",
            "resource": {
                "resourceType": "DocumentReference",
                "id": "3cb2e853-a982-4867-91dc-b71e0f6705e6",
                "meta": {
                    "tag": [
                        {
                            "system": "https://genomicsengland.co.uk/workspace_id",
                            "code": "mr383",
                            "display": "workspace_id"
                        }
                    ]
                },
                "identifier": [
                    {
                        "system": "https://genomicsengland.co.uk/ngis-weka-file-path",
                        "value": "/genomes/bertha-dev/analysis/multisample/a7e361c9fbabf10c0207911a05194dc0/ed2f1ac5fde877581ff46846845b9ab2/split_joint_vcf/f14b3fefa95c0cc71a23fe5471953c52/1/output/r30000000001_0011_LP1000000-DNA_B07.vcf.gz"
                    }
                ],
                "status": "current",
                "docStatus": "final",
                "category": [
                    {
                        "coding": [
                            {
                                "system": "https://genomicsengland.co.uk/ngis-file-category",
                                "code": "VCF_small"
                            }
                        ]
                    }
                ],
                "subject": {
                    "reference": "urn:uuid:394cc903-8629-450d-ba42-d22620382edb",
                    "identifier": {
                        "system": "https://genomicsengland.co.uk/ngis-participant-id",
                        "value": "p12345678301"
                    }
                },
                "author": [
                    {
                        "identifier": {
                            "system": "https://fhir.nhs.uk/Id/ods-organization-code",
                            "value": "8J834"
                        }
                    }
                ],
                "relatesTo": [
                    {
                        "code": "transforms",
                        "target": {
                            "reference": "urn:uuid:5db0a15b-58a7-4341-945e-03bb49e04e2e"
                        }
                    }
                ],
                "content": [
                    {
                        "attachment": {
                            "contentType": "application/vcf",
                            "url": "https://sandbox.api.service.nhs.uk/genomic-data-access/ga4gh/drs/v1.4/objects/03ff1e4c-8772-4f80-a467-6fa6e7dea196"
                        }
                    }
                ],
                "context": {
                    "related": [
                        {
                            "reference": "urn:uuid:aeeec8c8-d2be-44f9-b0e4-d941e5cb594b",
                            "identifier": {
                                "system": "https://genomicsengland.co.uk/ngis-sample-id",
                                "value": "LP1000000-DNA_B07"
                            }
                        },
                        {
                            "reference": "urn:uuid:06c744c1-9556-4085-8d4f-8deda713ba63",
                            "identifier": {
                                "system": "https://genomicsengland.co.uk/ngis-referral-id",
                                "value": "r30000000001"
                            }
                        }
                    ]
                }
            },
            "request": {
                "method": "POST",
                "url": "DocumentReference"
            }
        },
        {
            "fullUrl": "urn:uuid:5db0a15b-58a7-4341-945e-03bb49e04e2e",
            "resource": {
                "resourceType": "DocumentReference",
                "id": "5db0a15b-58a7-4341-945e-03bb49e04e2e",
                "meta": {
                    "tag": [
                        {
                            "system": "https://genomicsengland.co.uk/workspace_id",
                            "code": "mr383",
                            "display": "workspace_id"
                        }
                    ]
                },
                "identifier": [
                    {
                        "system": "https://genomicsengland.co.uk/ngis-weka-file-path",
                        "value": "/genomes/bertha-dev/analysis/multisample/a7e361c9fbabf10c0207911a05194dc0/ed2f1ac5fde877581ff46846845b9ab2/split_joint_vcf/f14b3fefa95c0cc71a23fe5471953c52/1/output/r30000000001_0011_LP1000000-DNA_B07.vcf.gz.tbi"
                    }
                ],
                "status": "current",
                "docStatus": "final",
                "category": [
                    {
                        "coding": [
                            {
                                "system": "https://genomicsengland.co.uk/ngis-file-category",
                                "code": "index"
                            }
                        ]
                    }
                ],
                "subject": {
                    "reference": "urn:uuid:394cc903-8629-450d-ba42-d22620382edb",
                    "identifier": {
                        "system": "https://genomicsengland.co.uk/ngis-participant-id",
                        "value": "p12345678301"
                    }
                },
                "author": [
                    {
                        "identifier": {
                            "system": "https://fhir.nhs.uk/Id/ods-organization-code",
                            "value": "8J834"
                        }
                    }
                ],
                "relatesTo": [
                    {
                        "code": "appends",
                        "target": {
                            "reference": "urn:uuid:3cb2e853-a982-4867-91dc-b71e0f6705e6"
                        }
                    }
                ],
                "content": [
                    {
                        "attachment": {
                            "contentType": "application/octet-stream",
                            "url": "https://sandbox.api.service.nhs.uk/genomic-data-access/ga4gh/drs/v1.4/objects/c030a890-05f5-4432-b448-31a6bff29511"
                        }
                    }
                ],
                "context": {
                    "related": [
                        {
                            "reference": "urn:uuid:aeeec8c8-d2be-44f9-b0e4-d941e5cb594b",
                            "identifier": {
                                "system": "https://genomicsengland.co.uk/ngis-sample-id",
                                "value": "LP1000000-DNA_B07"
                            }
                        },
                        {
                            "reference": "urn:uuid:06c744c1-9556-4085-8d4f-8deda713ba63",
                            "identifier": {
                                "system": "https://genomicsengland.co.uk/ngis-referral-id",
                                "value": "r30000000001"
                            }
                        }
                    ]
                }
            },
            "request": {
                "method": "POST",
                "url": "DocumentReference"
            }
        },
        {
            "fullUrl": "urn:uuid:64d06092-0f8d-4c58-95e2-4667a3d31de6",
            "resource": {
                "resourceType": "DocumentReference",
                "id": "64d06092-0f8d-4c58-95e2-4667a3d31de6",
                "meta": {
                    "tag": [
                        {
                            "system": "https://genomicsengland.co.uk/workspace_id",
                            "code": "mr383",
                            "display": "workspace_id"
                        }
                    ]
                },
                "identifier": [
                    {
                        "system": "https://genomicsengland.co.uk/ngis-weka-file-path",
                        "value": "/genomes/bertha-dev/analysis/multisample/a7e361c9fbabf10c0207911a05194dc0/ed2f1ac5fde877581ff46846845b9ab2/split_joint_vcf/f14b3fefa95c0cc71a23fe5471953c52/1/output/r30000000001_0011_LP1000000-DNA_B05.vcf.gz"
                    }
                ],
                "status": "current",
                "docStatus": "final",
                "category": [
                    {
                        "coding": [
                            {
                                "system": "https://genomicsengland.co.uk/ngis-file-category",
                                "code": "VCF_small"
                            }
                        ]
                    }
                ],
                "subject": {
                    "reference": "urn:uuid:394cc903-8629-450d-ba42-d22620382edb",
                    "identifier": {
                        "system": "https://genomicsengland.co.uk/ngis-participant-id",
                        "value": "p12345678301"
                    }
                },
                "author": [
                    {
                        "identifier": {
                            "system": "https://fhir.nhs.uk/Id/ods-organization-code",
                            "value": "8J834"
                        }
                    }
                ],
                "relatesTo": [
                    {
                        "code": "transforms",
                        "target": {
                            "reference": "urn:uuid:0c670a9f-a735-4862-9b64-584f01e2c82f"
                        }
                    }
                ],
                "content": [
                    {
                        "attachment": {
                            "contentType": "application/vcf",
                            "url": "https://sandbox.api.service.nhs.uk/genomic-data-access/ga4gh/drs/v1.4/objects/220e221f-8deb-44f2-a67d-f5fb656b8585"
                        }
                    }
                ],
                "context": {
                    "related": [
                        {
                            "reference": "urn:uuid:56118d9f-a505-4597-b1fc-a697318976b8",
                            "identifier": {
                                "system": "https://genomicsengland.co.uk/ngis-sample-id",
                                "value": "LP1000000-DNA_B05"
                            }
                        },
                        {
                            "reference": "urn:uuid:06c744c1-9556-4085-8d4f-8deda713ba63",
                            "identifier": {
                                "system": "https://genomicsengland.co.uk/ngis-referral-id",
                                "value": "r30000000001"
                            }
                        }
                    ]
                }
            },
            "request": {
                "method": "POST",
                "url": "DocumentReference"
            }
        },
        {
            "fullUrl": "urn:uuid:0c670a9f-a735-4862-9b64-584f01e2c82f",
            "resource": {
                "resourceType": "DocumentReference",
                "id": "0c670a9f-a735-4862-9b64-584f01e2c82f",
                "meta": {
                    "tag": [
                        {
                            "system": "https://genomicsengland.co.uk/workspace_id",
                            "code": "mr383",
                            "display": "workspace_id"
                        }
                    ]
                },
                "identifier": [
                    {
                        "system": "https://genomicsengland.co.uk/ngis-weka-file-path",
                        "value": "/genomes/bertha-dev/analysis/multisample/a7e361c9fbabf10c0207911a05194dc0/ed2f1ac5fde877581ff46846845b9ab2/split_joint_vcf/f14b3fefa95c0cc71a23fe5471953c52/1/output/r30000000001_0011_LP1000000-DNA_B05.vcf.gz.tbi"
                    }
                ],
                "status": "current",
                "docStatus": "final",
                "category": [
                    {
                        "coding": [
                            {
                                "system": "https://genomicsengland.co.uk/ngis-file-category",
                                "code": "index"
                            }
                        ]
                    }
                ],
                "subject": {
                    "reference": "urn:uuid:394cc903-8629-450d-ba42-d22620382edb",
                    "identifier": {
                        "system": "https://genomicsengland.co.uk/ngis-participant-id",
                        "value": "p12345678301"
                    }
                },
                "author": [
                    {
                        "identifier": {
                            "system": "https://fhir.nhs.uk/Id/ods-organization-code",
                            "value": "8J834"
                        }
                    }
                ],
                "relatesTo": [
                    {
                        "code": "appends",
                        "target": {
                            "reference": "urn:uuid:64d06092-0f8d-4c58-95e2-4667a3d31de6"
                        }
                    }
                ],
                "content": [
                    {
                        "attachment": {
                            "contentType": "application/octet-stream",
                            "url": "https://sandbox.api.service.nhs.uk/genomic-data-access/ga4gh/drs/v1.4/objects/0980c0e7-b9d4-41aa-8e3b-fe9d7222548b"
                        }
                    }
                ],
                "context": {
                    "related": [
                        {
                            "reference": "urn:uuid:56118d9f-a505-4597-b1fc-a697318976b8",
                            "identifier": {
                                "system": "https://genomicsengland.co.uk/ngis-sample-id",
                                "value": "LP1000000-DNA_B05"
                            }
                        },
                        {
                            "reference": "urn:uuid:06c744c1-9556-4085-8d4f-8deda713ba63",
                            "identifier": {
                                "system": "https://genomicsengland.co.uk/ngis-referral-id",
                                "value": "r30000000001"
                            }
                        }
                    ]
                }
            },
            "request": {
                "method": "POST",
                "url": "DocumentReference"
            }
        },
        {
            "fullUrl": "urn:uuid:16a35e12-8341-45f0-93d0-47aa47f6cb54",
            "resource": {
                "resourceType": "DocumentReference",
                "id": "16a35e12-8341-45f0-93d0-47aa47f6cb54",
                "meta": {
                    "tag": [
                        {
                            "system": "https://genomicsengland.co.uk/workspace_id",
                            "code": "mr383",
                            "display": "workspace_id"
                        }
                    ]
                },
                "identifier": [
                    {
                        "system": "https://genomicsengland.co.uk/ngis-weka-file-path",
                        "value": "/genomes/bertha-dev/analysis/multisample/a7e361c9fbabf10c0207911a05194dc0/ed2f1ac5fde877581ff46846845b9ab2/split_joint_vcf/f14b3fefa95c0cc71a23fe5471953c52/1/output/r30000000001_0011_LP1000000-DNA_E11.vcf.gz"
                    }
                ],
                "status": "current",
                "docStatus": "final",
                "category": [
                    {
                        "coding": [
                            {
                                "system": "https://genomicsengland.co.uk/ngis-file-category",
                                "code": "VCF_small"
                            }
                        ]
                    }
                ],
                "subject": {
                    "reference": "urn:uuid:394cc903-8629-450d-ba42-d22620382edb",
                    "identifier": {
                        "system": "https://genomicsengland.co.uk/ngis-participant-id",
                        "value": "p12345678301"
                    }
                },
                "author": [
                    {
                        "identifier": {
                            "system": "https://fhir.nhs.uk/Id/ods-organization-code",
                            "value": "8J834"
                        }
                    }
                ],
                "relatesTo": [
                    {
                        "code": "transforms",
                        "target": {
                            "reference": "urn:uuid:37fe93e9-addd-4cf1-9edc-cb7aa5a3f801"
                        }
                    }
                ],
                "content": [
                    {
                        "attachment": {
                            "contentType": "application/vcf",
                            "url": "https://sandbox.api.service.nhs.uk/genomic-data-access/ga4gh/drs/v1.4/objects/16aab69d-0498-4a34-95d2-6fa951ecbee1"
                        }
                    }
                ],
                "context": {
                    "related": [
                        {
                            "reference": "urn:uuid:b36fdd1f-1dc1-419d-90cd-15d9599324ed",
                            "identifier": {
                                "system": "https://genomicsengland.co.uk/ngis-sample-id",
                                "value": "LP1000000-DNA_E11"
                            }
                        },
                        {
                            "reference": "urn:uuid:06c744c1-9556-4085-8d4f-8deda713ba63",
                            "identifier": {
                                "system": "https://genomicsengland.co.uk/ngis-referral-id",
                                "value": "r30000000001"
                            }
                        }
                    ]
                }
            },
            "request": {
                "method": "POST",
                "url": "DocumentReference"
            }
        },
        {
            "fullUrl": "urn:uuid:37fe93e9-addd-4cf1-9edc-cb7aa5a3f801",
            "resource": {
                "resourceType": "DocumentReference",
                "id": "37fe93e9-addd-4cf1-9edc-cb7aa5a3f801",
                "meta": {
                    "tag": [
                        {
                            "system": "https://genomicsengland.co.uk/workspace_id",
                            "code": "mr383",
                            "display": "workspace_id"
                        }
                    ]
                },
                "identifier": [
                    {
                        "system": "https://genomicsengland.co.uk/ngis-weka-file-path",
                        "value": "/genomes/bertha-dev/analysis/multisample/a7e361c9fbabf10c0207911a05194dc0/ed2f1ac5fde877581ff46846845b9ab2/split_joint_vcf/f14b3fefa95c0cc71a23fe5471953c52/1/output/r30000000001_0011_LP1000000-DNA_E11.vcf.gz.tbi"
                    }
                ],
                "status": "current",
                "docStatus": "final",
                "category": [
                    {
                        "coding": [
                            {
                                "system": "https://genomicsengland.co.uk/ngis-file-category",
                                "code": "index"
                            }
                        ]
                    }
                ],
                "subject": {
                    "reference": "urn:uuid:394cc903-8629-450d-ba42-d22620382edb",
                    "identifier": {
                        "system": "https://genomicsengland.co.uk/ngis-participant-id",
                        "value": "p12345678301"
                    }
                },
                "author": [
                    {
                        "identifier": {
                            "system": "https://fhir.nhs.uk/Id/ods-organization-code",
                            "value": "8J834"
                        }
                    }
                ],
                "relatesTo": [
                    {
                        "code": "appends",
                        "target": {
                            "reference": "urn:uuid:16a35e12-8341-45f0-93d0-47aa47f6cb54"
                        }
                    }
                ],
                "content": [
                    {
                        "attachment": {
                            "contentType": "application/octet-stream",
                            "url": "https://sandbox.api.service.nhs.uk/genomic-data-access/ga4gh/drs/v1.4/objects/e20b85bd-573d-401d-8b10-eb742d1a1b97"
                        }
                    }
                ],
                "context": {
                    "related": [
                        {
                            "reference": "urn:uuid:b36fdd1f-1dc1-419d-90cd-15d9599324ed",
                            "identifier": {
                                "system": "https://genomicsengland.co.uk/ngis-sample-id",
                                "value": "LP1000000-DNA_E11"
                            }
                        },
                        {
                            "reference": "urn:uuid:06c744c1-9556-4085-8d4f-8deda713ba63",
                            "identifier": {
                                "system": "https://genomicsengland.co.uk/ngis-referral-id",
                                "value": "r30000000001"
                            }
                        }
                    ]
                }
            },
            "request": {
                "method": "POST",
                "url": "DocumentReference"
            }
        },
        {
            "fullUrl": "urn:uuid:cddfceed-11d9-495e-8716-1eef0da59baf",
            "resource": {
                "resourceType": "DocumentReference",
                "id": "cddfceed-11d9-495e-8716-1eef0da59baf",
                "meta": {
                    "tag": [
                        {
                            "system": "https://genomicsengland.co.uk/workspace_id",
                            "code": "mr383",
                            "display": "workspace_id"
                        }
                    ]
                },
                "identifier": [
                    {
                        "system": "https://genomicsengland.co.uk/ngis-weka-file-path",
                        "value": "/genomes/bertha-dev/analysis/multisample/a7e361c9fbabf10c0207911a05194dc0/ed2f1ac5fde877581ff46846845b9ab2/normalise_vcf_raredisease/f14b3fefa95c0cc71a23fe5471953c52/1/output/r30000000001_0011.duprem.left.split.vcf.gz"
                    }
                ],
                "status": "current",
                "docStatus": "final",
                "category": [
                    {
                        "coding": [
                            {
                                "system": "https://genomicsengland.co.uk/ngis-file-category",
                                "code": "VCF_small"
                            }
                        ]
                    }
                ],
                "subject": {
                    "reference": "urn:uuid:394cc903-8629-450d-ba42-d22620382edb",
                    "identifier": {
                        "system": "https://genomicsengland.co.uk/ngis-participant-id",
                        "value": "p12345678301"
                    }
                },
                "author": [
                    {
                        "identifier": {
                            "system": "https://fhir.nhs.uk/Id/ods-organization-code",
                            "value": "8J834"
                        }
                    }
                ],
                "relatesTo": [
                    {
                        "code": "transforms",
                        "target": {
                            "reference": "urn:uuid:f3658ea9-6944-4c84-9f40-f55502bcad3a"
                        }
                    }
                ],
                "content": [
                    {
                        "attachment": {
                            "contentType": "application/vcf",
                            "url": "https://sandbox.api.service.nhs.uk/genomic-data-access/ga4gh/drs/v1.4/objects/f56c0cf6-6a1f-4d7a-80e9-9b2ef2d278d4"
                        }
                    }
                ],
                "context": {
                    "related": [
                        {
                            "reference": "urn:uuid:aeeec8c8-d2be-44f9-b0e4-d941e5cb594b",
                            "identifier": {
                                "system": "https://genomicsengland.co.uk/ngis-sample-id",
                                "value": "LP1000000-DNA_B07"
                            }
                        },
                        {
                            "reference": "urn:uuid:06c744c1-9556-4085-8d4f-8deda713ba63",
                            "identifier": {
                                "system": "https://genomicsengland.co.uk/ngis-referral-id",
                                "value": "r30000000001"
                            }
                        }
                    ]
                }
            },
            "request": {
                "method": "POST",
                "url": "DocumentReference"
            }
        },
        {
            "fullUrl": "urn:uuid:f3658ea9-6944-4c84-9f40-f55502bcad3a",
            "resource": {
                "resourceType": "DocumentReference",
                "id": "f3658ea9-6944-4c84-9f40-f55502bcad3a",
                "meta": {
                    "tag": [
                        {
                            "system": "https://genomicsengland.co.uk/workspace_id",
                            "code": "mr383",
                            "display": "workspace_id"
                        }
                    ]
                },
                "identifier": [
                    {
                        "system": "https://genomicsengland.co.uk/ngis-weka-file-path",
                        "value": "/genomes/bertha-dev/analysis/multisample/a7e361c9fbabf10c0207911a05194dc0/ed2f1ac5fde877581ff46846845b9ab2/normalise_vcf_raredisease/f14b3fefa95c0cc71a23fe5471953c52/1/output/r30000000001_0011.duprem.left.split.vcf.gz.tbi"
                    }
                ],
                "status": "current",
                "docStatus": "final",
                "category": [
                    {
                        "coding": [
                            {
                                "system": "https://genomicsengland.co.uk/ngis-file-category",
                                "code": "index"
                            }
                        ]
                    }
                ],
                "subject": {
                    "reference": "urn:uuid:394cc903-8629-450d-ba42-d22620382edb",
                    "identifier": {
                        "system": "https://genomicsengland.co.uk/ngis-participant-id",
                        "value": "p12345678301"
                    }
                },
                "author": [
                    {
                        "identifier": {
                            "system": "https://fhir.nhs.uk/Id/ods-organization-code",
                            "value": "8J834"
                        }
                    }
                ],
                "relatesTo": [
                    {
                        "code": "appends",
                        "target": {
                            "reference": "urn:uuid:cddfceed-11d9-495e-8716-1eef0da59baf"
                        }
                    }
                ],
                "content": [
                    {
                        "attachment": {
                            "contentType": "application/octet-stream",
                            "url": "https://sandbox.api.service.nhs.uk/genomic-data-access/ga4gh/drs/v1.4/objects/79260541-014b-43a0-9298-63eebddcf8b9"
                        }
                    }
                ],
                "context": {
                    "related": [
                        {
                            "reference": "urn:uuid:aeeec8c8-d2be-44f9-b0e4-d941e5cb594b",
                            "identifier": {
                                "system": "https://genomicsengland.co.uk/ngis-sample-id",
                                "value": "LP1000000-DNA_B07"
                            }
                        },
                        {
                            "reference": "urn:uuid:06c744c1-9556-4085-8d4f-8deda713ba63",
                            "identifier": {
                                "system": "https://genomicsengland.co.uk/ngis-referral-id",
                                "value": "r30000000001"
                            }
                        }
                    ]
                }
            },
            "request": {
                "method": "POST",
                "url": "DocumentReference"
            }
        },
        {
            "fullUrl": "urn:uuid:1cb257bb-1a70-494b-9f99-efe1ef6a75f6",
            "resource": {
                "resourceType": "DocumentReference",
                "id": "1cb257bb-1a70-494b-9f99-efe1ef6a75f6",
                "meta": {
                    "tag": [
                        {
                            "system": "https://genomicsengland.co.uk/workspace_id",
                            "code": "mr383",
                            "display": "workspace_id"
                        }
                    ]
                },
                "identifier": [
                    {
                        "system": "https://genomicsengland.co.uk/ngis-weka-file-path",
                        "value": "/genomes/bertha-dev/by_name/LP1000000-DNA_B07/BE00002845/LP1000000-DNA_B07.cnv.vcf.gz"
                    }
                ],
                "status": "current",
                "docStatus": "final",
                "category": [
                    {
                        "coding": [
                            {
                                "system": "https://genomicsengland.co.uk/ngis-file-category",
                                "code": "VCF_SV_CNV"
                            }
                        ]
                    }
                ],
                "subject": {
                    "reference": "urn:uuid:394cc903-8629-450d-ba42-d22620382edb",
                    "identifier": {
                        "system": "https://genomicsengland.co.uk/ngis-participant-id",
                        "value": "p12345678301"
                    }
                },
                "author": [
                    {
                        "identifier": {
                            "system": "https://fhir.nhs.uk/Id/ods-organization-code",
                            "value": "8J834"
                        }
                    }
                ],
                "relatesTo": [
                    {
                        "code": "transforms",
                        "target": {
                            "reference": "urn:uuid:a8e9977b-1766-4b65-bc8e-77fc4ef8b0e2"
                        }
                    }
                ],
                "content": [
                    {
                        "attachment": {
                            "contentType": "application/vcf",
                            "url": "https://sandbox.api.service.nhs.uk/genomic-data-access/ga4gh/drs/v1.4/objects/a32feb78-568e-4b19-ac65-d6f06aa571dd"
                        }
                    }
                ],
                "context": {
                    "related": [
                        {
                            "reference": "urn:uuid:aeeec8c8-d2be-44f9-b0e4-d941e5cb594b",
                            "identifier": {
                                "system": "https://genomicsengland.co.uk/ngis-sample-id",
                                "value": "LP1000000-DNA_B07"
                            }
                        },
                        {
                            "reference": "urn:uuid:06c744c1-9556-4085-8d4f-8deda713ba63",
                            "identifier": {
                                "system": "https://genomicsengland.co.uk/ngis-referral-id",
                                "value": "r30000000001"
                            }
                        }
                    ]
                }
            },
            "request": {
                "method": "POST",
                "url": "DocumentReference"
            }
        },
        {
            "fullUrl": "urn:uuid:a8e9977b-1766-4b65-bc8e-77fc4ef8b0e2",
            "resource": {
                "resourceType": "DocumentReference",
                "id": "a8e9977b-1766-4b65-bc8e-77fc4ef8b0e2",
                "meta": {
                    "tag": [
                        {
                            "system": "https://genomicsengland.co.uk/workspace_id",
                            "code": "mr383",
                            "display": "workspace_id"
                        }
                    ]
                },
                "identifier": [
                    {
                        "system": "https://genomicsengland.co.uk/ngis-weka-file-path",
                        "value": "/genomes/bertha-dev/by_name/LP1000000-DNA_B07/BE00002845/LP1000000-DNA_B07.cnv.vcf.gz.tbi"
                    }
                ],
                "status": "current",
                "docStatus": "final",
                "category": [
                    {
                        "coding": [
                            {
                                "system": "https://genomicsengland.co.uk/ngis-file-category",
                                "code": "index"
                            }
                        ]
                    }
                ],
                "subject": {
                    "reference": "urn:uuid:394cc903-8629-450d-ba42-d22620382edb",
                    "identifier": {
                        "system": "https://genomicsengland.co.uk/ngis-participant-id",
                        "value": "p12345678301"
                    }
                },
                "author": [
                    {
                        "identifier": {
                            "system": "https://fhir.nhs.uk/Id/ods-organization-code",
                            "value": "8J834"
                        }
                    }
                ],
                "relatesTo": [
                    {
                        "code": "appends",
                        "target": {
                            "reference": "urn:uuid:1cb257bb-1a70-494b-9f99-efe1ef6a75f6"
                        }
                    }
                ],
                "content": [
                    {
                        "attachment": {
                            "contentType": "application/octet-stream",
                            "url": "https://sandbox.api.service.nhs.uk/genomic-data-access/ga4gh/drs/v1.4/objects/501e9b1d-6e0b-4070-8fab-d378823cf4c7"
                        }
                    }
                ],
                "context": {
                    "related": [
                        {
                            "reference": "urn:uuid:aeeec8c8-d2be-44f9-b0e4-d941e5cb594b",
                            "identifier": {
                                "system": "https://genomicsengland.co.uk/ngis-sample-id",
                                "value": "LP1000000-DNA_B07"
                            }
                        },
                        {
                            "reference": "urn:uuid:06c744c1-9556-4085-8d4f-8deda713ba63",
                            "identifier": {
                                "system": "https://genomicsengland.co.uk/ngis-referral-id",
                                "value": "r30000000001"
                            }
                        }
                    ]
                }
            },
            "request": {
                "method": "POST",
                "url": "DocumentReference"
            }
        },
        {
            "fullUrl": "urn:uuid:e4af2299-0558-4cda-a2f3-d7ef1c04e023",
            "resource": {
                "resourceType": "DocumentReference",
                "id": "e4af2299-0558-4cda-a2f3-d7ef1c04e023",
                "meta": {
                    "tag": [
                        {
                            "system": "https://genomicsengland.co.uk/workspace_id",
                            "code": "mr383",
                            "display": "workspace_id"
                        }
                    ]
                },
                "identifier": [
                    {
                        "system": "https://genomicsengland.co.uk/ngis-weka-file-path",
                        "value": "/genomes/bertha-dev/analysis/multisample/a7e361c9fbabf10c0207911a05194dc0/ed2f1ac5fde877581ff46846845b9ab2/enhance_small_cnvs/f14b3fefa95c0cc71a23fe5471953c52/1/output/LP1000000-DNA_B05.enhanced.cnv.vcf.gz"
                    }
                ],
                "status": "current",
                "docStatus": "final",
                "category": [
                    {
                        "coding": [
                            {
                                "system": "https://genomicsengland.co.uk/ngis-file-category",
                                "code": "VCF_SV_CNV"
                            }
                        ]
                    }
                ],
                "subject": {
                    "reference": "urn:uuid:394cc903-8629-450d-ba42-d22620382edb",
                    "identifier": {
                        "system": "https://genomicsengland.co.uk/ngis-participant-id",
                        "value": "p12345678301"
                    }
                },
                "author": [
                    {
                        "identifier": {
                            "system": "https://fhir.nhs.uk/Id/ods-organization-code",
                            "value": "8J834"
                        }
                    }
                ],
                "relatesTo": [
                    {
                        "code": "transforms",
                        "target": {
                            "reference": "urn:uuid:aaf190d9-e6ab-4b23-af74-97963fe36557"
                        }
                    }
                ],
                "content": [
                    {
                        "attachment": {
                            "contentType": "application/vcf",
                            "url": "https://sandbox.api.service.nhs.uk/genomic-data-access/ga4gh/drs/v1.4/objects/55ecbeda-db38-4f40-9cb4-85f2ccc81a66"
                        }
                    }
                ],
                "context": {
                    "related": [
                        {
                            "reference": "urn:uuid:56118d9f-a505-4597-b1fc-a697318976b8",
                            "identifier": {
                                "system": "https://genomicsengland.co.uk/ngis-sample-id",
                                "value": "LP1000000-DNA_B05"
                            }
                        },
                        {
                            "reference": "urn:uuid:06c744c1-9556-4085-8d4f-8deda713ba63",
                            "identifier": {
                                "system": "https://genomicsengland.co.uk/ngis-referral-id",
                                "value": "r30000000001"
                            }
                        }
                    ]
                }
            },
            "request": {
                "method": "POST",
                "url": "DocumentReference"
            }
        },
        {
            "fullUrl": "urn:uuid:aaf190d9-e6ab-4b23-af74-97963fe36557",
            "resource": {
                "resourceType": "DocumentReference",
                "id": "aaf190d9-e6ab-4b23-af74-97963fe36557",
                "meta": {
                    "tag": [
                        {
                            "system": "https://genomicsengland.co.uk/workspace_id",
                            "code": "mr383",
                            "display": "workspace_id"
                        }
                    ]
                },
                "identifier": [
                    {
                        "system": "https://genomicsengland.co.uk/ngis-weka-file-path",
                        "value": "/genomes/bertha-dev/analysis/multisample/a7e361c9fbabf10c0207911a05194dc0/ed2f1ac5fde877581ff46846845b9ab2/enhance_small_cnvs/f14b3fefa95c0cc71a23fe5471953c52/1/output/LP1000000-DNA_B05.enhanced.cnv.vcf.gz.tbi"
                    }
                ],
                "status": "current",
                "docStatus": "final",
                "category": [
                    {
                        "coding": [
                            {
                                "system": "https://genomicsengland.co.uk/ngis-file-category",
                                "code": "index"
                            }
                        ]
                    }
                ],
                "subject": {
                    "reference": "urn:uuid:394cc903-8629-450d-ba42-d22620382edb",
                    "identifier": {
                        "system": "https://genomicsengland.co.uk/ngis-participant-id",
                        "value": "p12345678301"
                    }
                },
                "author": [
                    {
                        "identifier": {
                            "system": "https://fhir.nhs.uk/Id/ods-organization-code",
                            "value": "8J834"
                        }
                    }
                ],
                "relatesTo": [
                    {
                        "code": "appends",
                        "target": {
                            "reference": "urn:uuid:e4af2299-0558-4cda-a2f3-d7ef1c04e023"
                        }
                    }
                ],
                "content": [
                    {
                        "attachment": {
                            "contentType": "application/octet-stream",
                            "url": "https://sandbox.api.service.nhs.uk/genomic-data-access/ga4gh/drs/v1.4/objects/7a3fd918-bdc4-4fa6-bf1d-73ac6dbf0381"
                        }
                    }
                ],
                "context": {
                    "related": [
                        {
                            "reference": "urn:uuid:56118d9f-a505-4597-b1fc-a697318976b8",
                            "identifier": {
                                "system": "https://genomicsengland.co.uk/ngis-sample-id",
                                "value": "LP1000000-DNA_B05"
                            }
                        },
                        {
                            "reference": "urn:uuid:06c744c1-9556-4085-8d4f-8deda713ba63",
                            "identifier": {
                                "system": "https://genomicsengland.co.uk/ngis-referral-id",
                                "value": "r30000000001"
                            }
                        }
                    ]
                }
            },
            "request": {
                "method": "POST",
                "url": "DocumentReference"
            }
        },
        {
            "fullUrl": "urn:uuid:d8270b68-31ca-4d97-bb22-f7a28dd0efcb",
            "resource": {
                "resourceType": "DocumentReference",
                "id": "d8270b68-31ca-4d97-bb22-f7a28dd0efcb",
                "meta": {
                    "tag": [
                        {
                            "system": "https://genomicsengland.co.uk/workspace_id",
                            "code": "mr383",
                            "display": "workspace_id"
                        }
                    ]
                },
                "identifier": [
                    {
                        "system": "https://genomicsengland.co.uk/ngis-weka-file-path",
                        "value": "/genomes/bertha-dev/by_name/LP1000000-DNA_E11/BE00002844/LP1000000-DNA_E11.cnv.vcf.gz"
                    }
                ],
                "status": "current",
                "docStatus": "final",
                "category": [
                    {
                        "coding": [
                            {
                                "system": "https://genomicsengland.co.uk/ngis-file-category",
                                "code": "VCF_SV_CNV"
                            }
                        ]
                    }
                ],
                "subject": {
                    "reference": "urn:uuid:394cc903-8629-450d-ba42-d22620382edb",
                    "identifier": {
                        "system": "https://genomicsengland.co.uk/ngis-participant-id",
                        "value": "p12345678301"
                    }
                },
                "author": [
                    {
                        "identifier": {
                            "system": "https://fhir.nhs.uk/Id/ods-organization-code",
                            "value": "8J834"
                        }
                    }
                ],
                "relatesTo": [
                    {
                        "code": "transforms",
                        "target": {
                            "reference": "urn:uuid:0a861f9e-37da-43c7-8e5e-e6f32fcfcb73"
                        }
                    }
                ],
                "content": [
                    {
                        "attachment": {
                            "contentType": "application/vcf",
                            "url": "https://sandbox.api.service.nhs.uk/genomic-data-access/ga4gh/drs/v1.4/objects/cceea4ce-effe-4eb3-b9df-1d2b99db7774"
                        }
                    }
                ],
                "context": {
                    "related": [
                        {
                            "reference": "urn:uuid:b36fdd1f-1dc1-419d-90cd-15d9599324ed",
                            "identifier": {
                                "system": "https://genomicsengland.co.uk/ngis-sample-id",
                                "value": "LP1000000-DNA_E11"
                            }
                        },
                        {
                            "reference": "urn:uuid:06c744c1-9556-4085-8d4f-8deda713ba63",
                            "identifier": {
                                "system": "https://genomicsengland.co.uk/ngis-referral-id",
                                "value": "r30000000001"
                            }
                        }
                    ]
                }
            },
            "request": {
                "method": "POST",
                "url": "DocumentReference"
            }
        },
        {
            "fullUrl": "urn:uuid:0a861f9e-37da-43c7-8e5e-e6f32fcfcb73",
            "resource": {
                "resourceType": "DocumentReference",
                "id": "0a861f9e-37da-43c7-8e5e-e6f32fcfcb73",
                "meta": {
                    "tag": [
                        {
                            "system": "https://genomicsengland.co.uk/workspace_id",
                            "code": "mr383",
                            "display": "workspace_id"
                        }
                    ]
                },
                "identifier": [
                    {
                        "system": "https://genomicsengland.co.uk/ngis-weka-file-path",
                        "value": "/genomes/bertha-dev/by_name/LP1000000-DNA_E11/BE00002844/LP1000000-DNA_E11.cnv.vcf.gz.tbi"
                    }
                ],
                "status": "current",
                "docStatus": "final",
                "category": [
                    {
                        "coding": [
                            {
                                "system": "https://genomicsengland.co.uk/ngis-file-category",
                                "code": "index"
                            }
                        ]
                    }
                ],
                "subject": {
                    "reference": "urn:uuid:394cc903-8629-450d-ba42-d22620382edb",
                    "identifier": {
                        "system": "https://genomicsengland.co.uk/ngis-participant-id",
                        "value": "p12345678301"
                    }
                },
                "author": [
                    {
                        "identifier": {
                            "system": "https://fhir.nhs.uk/Id/ods-organization-code",
                            "value": "8J834"
                        }
                    }
                ],
                "relatesTo": [
                    {
                        "code": "appends",
                        "target": {
                            "reference": "urn:uuid:d8270b68-31ca-4d97-bb22-f7a28dd0efcb"
                        }
                    }
                ],
                "content": [
                    {
                        "attachment": {
                            "contentType": "application/octet-stream",
                            "url": "https://sandbox.api.service.nhs.uk/genomic-data-access/ga4gh/drs/v1.4/objects/7ea6a976-cf35-41fb-92ee-065c8df5a78e"
                        }
                    }
                ],
                "context": {
                    "related": [
                        {
                            "reference": "urn:uuid:b36fdd1f-1dc1-419d-90cd-15d9599324ed",
                            "identifier": {
                                "system": "https://genomicsengland.co.uk/ngis-sample-id",
                                "value": "LP1000000-DNA_E11"
                            }
                        },
                        {
                            "reference": "urn:uuid:06c744c1-9556-4085-8d4f-8deda713ba63",
                            "identifier": {
                                "system": "https://genomicsengland.co.uk/ngis-referral-id",
                                "value": "r30000000001"
                            }
                        }
                    ]
                }
            },
            "request": {
                "method": "POST",
                "url": "DocumentReference"
            }
        },
        {
            "fullUrl": "urn:uuid:48ec7d0b-623e-4c6f-9828-20102225c805",
            "resource": {
                "resourceType": "DocumentReference",
                "id": "48ec7d0b-623e-4c6f-9828-20102225c805",
                "meta": {
                    "tag": [
                        {
                            "system": "https://genomicsengland.co.uk/workspace_id",
                            "code": "mr383",
                            "display": "workspace_id"
                        }
                    ]
                },
                "identifier": [
                    {
                        "system": "https://genomicsengland.co.uk/ngis-weka-file-path",
                        "value": "/genomes/bertha-dev/analysis/multisample/a7e361c9fbabf10c0207911a05194dc0/ed2f1ac5fde877581ff46846845b9ab2/merge_str_vcfs/f14b3fefa95c0cc71a23fe5471953c52/1/output/LP1000000-DNA_B07.repeats.vcf.gz"
                    }
                ],
                "status": "current",
                "docStatus": "final",
                "category": [
                    {
                        "coding": [
                            {
                                "system": "https://genomicsengland.co.uk/ngis-file-category",
                                "code": "VCF_SV"
                            }
                        ]
                    }
                ],
                "subject": {
                    "reference": "urn:uuid:394cc903-8629-450d-ba42-d22620382edb",
                    "identifier": {
                        "system": "https://genomicsengland.co.uk/ngis-participant-id",
                        "value": "p12345678301"
                    }
                },
                "author": [
                    {
                        "identifier": {
                            "system": "https://fhir.nhs.uk/Id/ods-organization-code",
                            "value": "8J834"
                        }
                    }
                ],
                "relatesTo": [
                    {
                        "code": "transforms",
                        "target": {
                            "reference": "urn:uuid:c666e2b2-1acd-4bcd-9a65-8c5dd5e75230"
                        }
                    }
                ],
                "content": [
                    {
                        "attachment": {
                            "contentType": "application/vcf",
                            "url": "https://sandbox.api.service.nhs.uk/genomic-data-access/ga4gh/drs/v1.4/objects/f8fc1a1b-f0d4-4167-9a40-4094dc4bfbd7"
                        }
                    }
                ],
                "context": {
                    "related": [
                        {
                            "reference": "urn:uuid:aeeec8c8-d2be-44f9-b0e4-d941e5cb594b",
                            "identifier": {
                                "system": "https://genomicsengland.co.uk/ngis-sample-id",
                                "value": "LP1000000-DNA_B07"
                            }
                        },
                        {
                            "reference": "urn:uuid:06c744c1-9556-4085-8d4f-8deda713ba63",
                            "identifier": {
                                "system": "https://genomicsengland.co.uk/ngis-referral-id",
                                "value": "r30000000001"
                            }
                        }
                    ]
                }
            },
            "request": {
                "method": "POST",
                "url": "DocumentReference"
            }
        },
        {
            "fullUrl": "urn:uuid:c666e2b2-1acd-4bcd-9a65-8c5dd5e75230",
            "resource": {
                "resourceType": "DocumentReference",
                "id": "c666e2b2-1acd-4bcd-9a65-8c5dd5e75230",
                "meta": {
                    "tag": [
                        {
                            "system": "https://genomicsengland.co.uk/workspace_id",
                            "code": "mr383",
                            "display": "workspace_id"
                        }
                    ]
                },
                "identifier": [
                    {
                        "system": "https://genomicsengland.co.uk/ngis-weka-file-path",
                        "value": "/genomes/bertha-dev/analysis/multisample/a7e361c9fbabf10c0207911a05194dc0/ed2f1ac5fde877581ff46846845b9ab2/merge_str_vcfs/f14b3fefa95c0cc71a23fe5471953c52/1/output/LP1000000-DNA_B07.repeats.vcf.gz.tbi"
                    }
                ],
                "status": "current",
                "docStatus": "final",
                "category": [
                    {
                        "coding": [
                            {
                                "system": "https://genomicsengland.co.uk/ngis-file-category",
                                "code": "index"
                            }
                        ]
                    }
                ],
                "subject": {
                    "reference": "urn:uuid:394cc903-8629-450d-ba42-d22620382edb",
                    "identifier": {
                        "system": "https://genomicsengland.co.uk/ngis-participant-id",
                        "value": "p12345678301"
                    }
                },
                "author": [
                    {
                        "identifier": {
                            "system": "https://fhir.nhs.uk/Id/ods-organization-code",
                            "value": "8J834"
                        }
                    }
                ],
                "relatesTo": [
                    {
                        "code": "appends",
                        "target": {
                            "reference": "urn:uuid:48ec7d0b-623e-4c6f-9828-20102225c805"
                        }
                    }
                ],
                "content": [
                    {
                        "attachment": {
                            "contentType": "application/octet-stream",
                            "url": "https://sandbox.api.service.nhs.uk/genomic-data-access/ga4gh/drs/v1.4/objects/2554d9df-b01c-4ac6-85fa-bb1d4139cbba"
                        }
                    }
                ],
                "context": {
                    "related": [
                        {
                            "reference": "urn:uuid:aeeec8c8-d2be-44f9-b0e4-d941e5cb594b",
                            "identifier": {
                                "system": "https://genomicsengland.co.uk/ngis-sample-id",
                                "value": "LP1000000-DNA_B07"
                            }
                        },
                        {
                            "reference": "urn:uuid:06c744c1-9556-4085-8d4f-8deda713ba63",
                            "identifier": {
                                "system": "https://genomicsengland.co.uk/ngis-referral-id",
                                "value": "r30000000001"
                            }
                        }
                    ]
                }
            },
            "request": {
                "method": "POST",
                "url": "DocumentReference"
            }
        },
        {
            "fullUrl": "urn:uuid:45f38f7c-7e3f-48c2-8db6-a6a9fdc81b64",
            "resource": {
                "resourceType": "DocumentReference",
                "id": "45f38f7c-7e3f-48c2-8db6-a6a9fdc81b64",
                "meta": {
                    "tag": [
                        {
                            "system": "https://genomicsengland.co.uk/workspace_id",
                            "code": "mr383",
                            "display": "workspace_id"
                        }
                    ]
                },
                "identifier": [
                    {
                        "system": "https://genomicsengland.co.uk/ngis-weka-file-path",
                        "value": "/genomes/bertha-dev/analysis/multisample/a7e361c9fbabf10c0207911a05194dc0/ed2f1ac5fde877581ff46846845b9ab2/merge_str_vcfs/f14b3fefa95c0cc71a23fe5471953c52/1/output/LP1000000-DNA_B05.repeats.vcf.gz"
                    }
                ],
                "status": "current",
                "docStatus": "final",
                "category": [
                    {
                        "coding": [
                            {
                                "system": "https://genomicsengland.co.uk/ngis-file-category",
                                "code": "VCF_SV"
                            }
                        ]
                    }
                ],
                "subject": {
                    "reference": "urn:uuid:394cc903-8629-450d-ba42-d22620382edb",
                    "identifier": {
                        "system": "https://genomicsengland.co.uk/ngis-participant-id",
                        "value": "p12345678301"
                    }
                },
                "author": [
                    {
                        "identifier": {
                            "system": "https://fhir.nhs.uk/Id/ods-organization-code",
                            "value": "8J834"
                        }
                    }
                ],
                "relatesTo": [
                    {
                        "code": "transforms",
                        "target": {
                            "reference": "urn:uuid:aeca8507-df2a-4943-a4fd-f43685e9ba7c"
                        }
                    }
                ],
                "content": [
                    {
                        "attachment": {
                            "contentType": "application/vcf",
                            "url": "https://sandbox.api.service.nhs.uk/genomic-data-access/ga4gh/drs/v1.4/objects/9d06df65-06d1-4dda-a084-e5641c721f3b"
                        }
                    }
                ],
                "context": {
                    "related": [
                        {
                            "reference": "urn:uuid:56118d9f-a505-4597-b1fc-a697318976b8",
                            "identifier": {
                                "system": "https://genomicsengland.co.uk/ngis-sample-id",
                                "value": "LP1000000-DNA_B05"
                            }
                        },
                        {
                            "reference": "urn:uuid:06c744c1-9556-4085-8d4f-8deda713ba63",
                            "identifier": {
                                "system": "https://genomicsengland.co.uk/ngis-referral-id",
                                "value": "r30000000001"
                            }
                        }
                    ]
                }
            },
            "request": {
                "method": "POST",
                "url": "DocumentReference"
            }
        },
        {
            "fullUrl": "urn:uuid:aeca8507-df2a-4943-a4fd-f43685e9ba7c",
            "resource": {
                "resourceType": "DocumentReference",
                "id": "aeca8507-df2a-4943-a4fd-f43685e9ba7c",
                "meta": {
                    "tag": [
                        {
                            "system": "https://genomicsengland.co.uk/workspace_id",
                            "code": "mr383",
                            "display": "workspace_id"
                        }
                    ]
                },
                "identifier": [
                    {
                        "system": "https://genomicsengland.co.uk/ngis-weka-file-path",
                        "value": "/genomes/bertha-dev/analysis/multisample/a7e361c9fbabf10c0207911a05194dc0/ed2f1ac5fde877581ff46846845b9ab2/merge_str_vcfs/f14b3fefa95c0cc71a23fe5471953c52/1/output/LP1000000-DNA_B05.repeats.vcf.gz.tbi"
                    }
                ],
                "status": "current",
                "docStatus": "final",
                "category": [
                    {
                        "coding": [
                            {
                                "system": "https://genomicsengland.co.uk/ngis-file-category",
                                "code": "index"
                            }
                        ]
                    }
                ],
                "subject": {
                    "reference": "urn:uuid:394cc903-8629-450d-ba42-d22620382edb",
                    "identifier": {
                        "system": "https://genomicsengland.co.uk/ngis-participant-id",
                        "value": "p12345678301"
                    }
                },
                "author": [
                    {
                        "identifier": {
                            "system": "https://fhir.nhs.uk/Id/ods-organization-code",
                            "value": "8J834"
                        }
                    }
                ],
                "relatesTo": [
                    {
                        "code": "appends",
                        "target": {
                            "reference": "urn:uuid:45f38f7c-7e3f-48c2-8db6-a6a9fdc81b64"
                        }
                    }
                ],
                "content": [
                    {
                        "attachment": {
                            "contentType": "application/octet-stream",
                            "url": "https://sandbox.api.service.nhs.uk/genomic-data-access/ga4gh/drs/v1.4/objects/441d729d-be02-468f-9fb8-4cb9a3669c72"
                        }
                    }
                ],
                "context": {
                    "related": [
                        {
                            "reference": "urn:uuid:56118d9f-a505-4597-b1fc-a697318976b8",
                            "identifier": {
                                "system": "https://genomicsengland.co.uk/ngis-sample-id",
                                "value": "LP1000000-DNA_B05"
                            }
                        },
                        {
                            "reference": "urn:uuid:06c744c1-9556-4085-8d4f-8deda713ba63",
                            "identifier": {
                                "system": "https://genomicsengland.co.uk/ngis-referral-id",
                                "value": "r30000000001"
                            }
                        }
                    ]
                }
            },
            "request": {
                "method": "POST",
                "url": "DocumentReference"
            }
        },
        {
            "fullUrl": "urn:uuid:0d3790b2-4925-4d2c-8471-018d73cdcc5b",
            "resource": {
                "resourceType": "DocumentReference",
                "id": "0d3790b2-4925-4d2c-8471-018d73cdcc5b",
                "meta": {
                    "tag": [
                        {
                            "system": "https://genomicsengland.co.uk/workspace_id",
                            "code": "mr383",
                            "display": "workspace_id"
                        }
                    ]
                },
                "identifier": [
                    {
                        "system": "https://genomicsengland.co.uk/ngis-weka-file-path",
                        "value": "/genomes/bertha-dev/analysis/multisample/a7e361c9fbabf10c0207911a05194dc0/ed2f1ac5fde877581ff46846845b9ab2/merge_str_vcfs/f14b3fefa95c0cc71a23fe5471953c52/1/output/LP1000000-DNA_E11.repeats.vcf.gz"
                    }
                ],
                "status": "current",
                "docStatus": "final",
                "category": [
                    {
                        "coding": [
                            {
                                "system": "https://genomicsengland.co.uk/ngis-file-category",
                                "code": "VCF_SV"
                            }
                        ]
                    }
                ],
                "subject": {
                    "reference": "urn:uuid:394cc903-8629-450d-ba42-d22620382edb",
                    "identifier": {
                        "system": "https://genomicsengland.co.uk/ngis-participant-id",
                        "value": "p12345678301"
                    }
                },
                "author": [
                    {
                        "identifier": {
                            "system": "https://fhir.nhs.uk/Id/ods-organization-code",
                            "value": "8J834"
                        }
                    }
                ],
                "relatesTo": [
                    {
                        "code": "transforms",
                        "target": {
                            "reference": "urn:uuid:eee0f614-ba5b-4c02-8556-02e714eec01f"
                        }
                    }
                ],
                "content": [
                    {
                        "attachment": {
                            "contentType": "application/vcf",
                            "url": "https://sandbox.api.service.nhs.uk/genomic-data-access/ga4gh/drs/v1.4/objects/125353c8-df79-40b2-8d0b-9b2397e22ed6"
                        }
                    }
                ],
                "context": {
                    "related": [
                        {
                            "reference": "urn:uuid:b36fdd1f-1dc1-419d-90cd-15d9599324ed",
                            "identifier": {
                                "system": "https://genomicsengland.co.uk/ngis-sample-id",
                                "value": "LP1000000-DNA_E11"
                            }
                        },
                        {
                            "reference": "urn:uuid:06c744c1-9556-4085-8d4f-8deda713ba63",
                            "identifier": {
                                "system": "https://genomicsengland.co.uk/ngis-referral-id",
                                "value": "r30000000001"
                            }
                        }
                    ]
                }
            },
            "request": {
                "method": "POST",
                "url": "DocumentReference"
            }
        },
        {
            "fullUrl": "urn:uuid:eee0f614-ba5b-4c02-8556-02e714eec01f",
            "resource": {
                "resourceType": "DocumentReference",
                "id": "eee0f614-ba5b-4c02-8556-02e714eec01f",
                "meta": {
                    "tag": [
                        {
                            "system": "https://genomicsengland.co.uk/workspace_id",
                            "code": "mr383",
                            "display": "workspace_id"
                        }
                    ]
                },
                "identifier": [
                    {
                        "system": "https://genomicsengland.co.uk/ngis-weka-file-path",
                        "value": "/genomes/bertha-dev/analysis/multisample/a7e361c9fbabf10c0207911a05194dc0/ed2f1ac5fde877581ff46846845b9ab2/merge_str_vcfs/f14b3fefa95c0cc71a23fe5471953c52/1/output/LP1000000-DNA_E11.repeats.vcf.gz.tbi"
                    }
                ],
                "status": "current",
                "docStatus": "final",
                "category": [
                    {
                        "coding": [
                            {
                                "system": "https://genomicsengland.co.uk/ngis-file-category",
                                "code": "index"
                            }
                        ]
                    }
                ],
                "subject": {
                    "reference": "urn:uuid:394cc903-8629-450d-ba42-d22620382edb",
                    "identifier": {
                        "system": "https://genomicsengland.co.uk/ngis-participant-id",
                        "value": "p12345678301"
                    }
                },
                "author": [
                    {
                        "identifier": {
                            "system": "https://fhir.nhs.uk/Id/ods-organization-code",
                            "value": "8J834"
                        }
                    }
                ],
                "relatesTo": [
                    {
                        "code": "appends",
                        "target": {
                            "reference": "urn:uuid:0d3790b2-4925-4d2c-8471-018d73cdcc5b"
                        }
                    }
                ],
                "content": [
                    {
                        "attachment": {
                            "contentType": "application/octet-stream",
                            "url": "https://sandbox.api.service.nhs.uk/genomic-data-access/ga4gh/drs/v1.4/objects/1f4e1b4b-2e95-4a43-bc7f-7350617e5f21"
                        }
                    }
                ],
                "context": {
                    "related": [
                        {
                            "reference": "urn:uuid:b36fdd1f-1dc1-419d-90cd-15d9599324ed",
                            "identifier": {
                                "system": "https://genomicsengland.co.uk/ngis-sample-id",
                                "value": "LP1000000-DNA_E11"
                            }
                        },
                        {
                            "reference": "urn:uuid:06c744c1-9556-4085-8d4f-8deda713ba63",
                            "identifier": {
                                "system": "https://genomicsengland.co.uk/ngis-referral-id",
                                "value": "r30000000001"
                            }
                        }
                    ]
                }
            },
            "request": {
                "method": "POST",
                "url": "DocumentReference"
            }
        },
        {
            "fullUrl": "urn:uuid:742dd8b7-4e27-4688-ad77-7dc08cbaa70f",
            "resource": {
                "resourceType": "DocumentReference",
                "id": "742dd8b7-4e27-4688-ad77-7dc08cbaa70f",
                "meta": {
                    "tag": [
                        {
                            "system": "https://genomicsengland.co.uk/workspace_id",
                            "code": "mr383",
                            "display": "workspace_id"
                        }
                    ]
                },
                "identifier": [
                    {
                        "system": "https://genomicsengland.co.uk/ngis-weka-file-path",
                        "value": "/genomes/bertha-dev/by_name/LP1000000-DNA_B07/BE00002845/LP1000000-DNA_B07.cram"
                    }
                ],
                "status": "current",
                "docStatus": "final",
                "category": [
                    {
                        "coding": [
                            {
                                "system": "https://genomicsengland.co.uk/ngis-file-category",
                                "code": "CRAM"
                            }
                        ]
                    }
                ],
                "subject": {
                    "reference": "urn:uuid:394cc903-8629-450d-ba42-d22620382edb",
                    "identifier": {
                        "system": "https://genomicsengland.co.uk/ngis-participant-id",
                        "value": "p12345678301"
                    }
                },
                "author": [
                    {
                        "identifier": {
                            "system": "https://fhir.nhs.uk/Id/ods-organization-code",
                            "value": "8J834"
                        }
                    }
                ],
                "relatesTo": [
                    {
                        "code": "transforms",
                        "target": {
                            "reference": "urn:uuid:5df4a4d3-6ca7-4100-a452-11c34a2e5819"
                        }
                    }
                ],
                "content": [
                    {
                        "attachment": {
                            "contentType": "application/cram",
                            "url": "https://sandbox.api.service.nhs.uk/genomic-data-access/ga4gh/drs/v1.4/objects/a49c5d3a-35cf-4399-9511-3c348bb20386"
                        }
                    }
                ],
                "context": {
                    "related": [
                        {
                            "reference": "urn:uuid:aeeec8c8-d2be-44f9-b0e4-d941e5cb594b",
                            "identifier": {
                                "system": "https://genomicsengland.co.uk/ngis-sample-id",
                                "value": "LP1000000-DNA_B07"
                            }
                        },
                        {
                            "reference": "urn:uuid:06c744c1-9556-4085-8d4f-8deda713ba63",
                            "identifier": {
                                "system": "https://genomicsengland.co.uk/ngis-referral-id",
                                "value": "r30000000001"
                            }
                        }
                    ]
                }
            },
            "request": {
                "method": "POST",
                "url": "DocumentReference"
            }
        },
        {
            "fullUrl": "urn:uuid:5df4a4d3-6ca7-4100-a452-11c34a2e5819",
            "resource": {
                "resourceType": "DocumentReference",
                "id": "5df4a4d3-6ca7-4100-a452-11c34a2e5819",
                "meta": {
                    "tag": [
                        {
                            "system": "https://genomicsengland.co.uk/workspace_id",
                            "code": "mr383",
                            "display": "workspace_id"
                        }
                    ]
                },
                "identifier": [
                    {
                        "system": "https://genomicsengland.co.uk/ngis-weka-file-path",
                        "value": "/genomes/bertha-dev/by_name/LP1000000-DNA_B07/BE00002845/LP1000000-DNA_B07.cram.crai"
                    }
                ],
                "status": "current",
                "docStatus": "final",
                "category": [
                    {
                        "coding": [
                            {
                                "system": "https://genomicsengland.co.uk/ngis-file-category",
                                "code": "index"
                            }
                        ]
                    }
                ],
                "subject": {
                    "reference": "urn:uuid:394cc903-8629-450d-ba42-d22620382edb",
                    "identifier": {
                        "system": "https://genomicsengland.co.uk/ngis-participant-id",
                        "value": "p12345678301"
                    }
                },
                "author": [
                    {
                        "identifier": {
                            "system": "https://fhir.nhs.uk/Id/ods-organization-code",
                            "value": "8J834"
                        }
                    }
                ],
                "relatesTo": [
                    {
                        "code": "appends",
                        "target": {
                            "reference": "urn:uuid:742dd8b7-4e27-4688-ad77-7dc08cbaa70f"
                        }
                    }
                ],
                "content": [
                    {
                        "attachment": {
                            "contentType": "application/octet-stream",
                            "url": "https://sandbox.api.service.nhs.uk/genomic-data-access/ga4gh/drs/v1.4/objects/4fceae6b-9075-45c2-8b66-53b009981191"
                        }
                    }
                ],
                "context": {
                    "related": [
                        {
                            "reference": "urn:uuid:aeeec8c8-d2be-44f9-b0e4-d941e5cb594b",
                            "identifier": {
                                "system": "https://genomicsengland.co.uk/ngis-sample-id",
                                "value": "LP1000000-DNA_B07"
                            }
                        },
                        {
                            "reference": "urn:uuid:06c744c1-9556-4085-8d4f-8deda713ba63",
                            "identifier": {
                                "system": "https://genomicsengland.co.uk/ngis-referral-id",
                                "value": "r30000000001"
                            }
                        }
                    ]
                }
            },
            "request": {
                "method": "POST",
                "url": "DocumentReference"
            }
        },
        {
            "fullUrl": "urn:uuid:8dbef4bd-32eb-4e73-8247-0796a16b21d7",
            "resource": {
                "resourceType": "DocumentReference",
                "id": "8dbef4bd-32eb-4e73-8247-0796a16b21d7",
                "meta": {
                    "tag": [
                        {
                            "system": "https://genomicsengland.co.uk/workspace_id",
                            "code": "mr383",
                            "display": "workspace_id"
                        }
                    ]
                },
                "identifier": [
                    {
                        "system": "https://genomicsengland.co.uk/ngis-weka-file-path",
                        "value": "/genomes/bertha-dev/by_name/LP1000000-DNA_B05/BE00002843/LP1000000-DNA_B05.cram"
                    }
                ],
                "status": "current",
                "docStatus": "final",
                "category": [
                    {
                        "coding": [
                            {
                                "system": "https://genomicsengland.co.uk/ngis-file-category",
                                "code": "CRAM"
                            }
                        ]
                    }
                ],
                "subject": {
                    "reference": "urn:uuid:394cc903-8629-450d-ba42-d22620382edb",
                    "identifier": {
                        "system": "https://genomicsengland.co.uk/ngis-participant-id",
                        "value": "p12345678301"
                    }
                },
                "author": [
                    {
                        "identifier": {
                            "system": "https://fhir.nhs.uk/Id/ods-organization-code",
                            "value": "8J834"
                        }
                    }
                ],
                "relatesTo": [
                    {
                        "code": "transforms",
                        "target": {
                            "reference": "urn:uuid:c85bc585-b35f-4ede-a51f-fb6bf0dc59ca"
                        }
                    }
                ],
                "content": [
                    {
                        "attachment": {
                            "contentType": "application/cram",
                            "url": "https://sandbox.api.service.nhs.uk/genomic-data-access/ga4gh/drs/v1.4/objects/b323ff99-d02c-400a-a919-e2e976c3f479"
                        }
                    }
                ],
                "context": {
                    "related": [
                        {
                            "reference": "urn:uuid:56118d9f-a505-4597-b1fc-a697318976b8",
                            "identifier": {
                                "system": "https://genomicsengland.co.uk/ngis-sample-id",
                                "value": "LP1000000-DNA_B05"
                            }
                        },
                        {
                            "reference": "urn:uuid:06c744c1-9556-4085-8d4f-8deda713ba63",
                            "identifier": {
                                "system": "https://genomicsengland.co.uk/ngis-referral-id",
                                "value": "r30000000001"
                            }
                        }
                    ]
                }
            },
            "request": {
                "method": "POST",
                "url": "DocumentReference"
            }
        },
        {
            "fullUrl": "urn:uuid:c85bc585-b35f-4ede-a51f-fb6bf0dc59ca",
            "resource": {
                "resourceType": "DocumentReference",
                "id": "c85bc585-b35f-4ede-a51f-fb6bf0dc59ca",
                "meta": {
                    "tag": [
                        {
                            "system": "https://genomicsengland.co.uk/workspace_id",
                            "code": "mr383",
                            "display": "workspace_id"
                        }
                    ]
                },
                "identifier": [
                    {
                        "system": "https://genomicsengland.co.uk/ngis-weka-file-path",
                        "value": "/genomes/bertha-dev/by_name/LP1000000-DNA_B05/BE00002843/LP1000000-DNA_B05.cram.crai"
                    }
                ],
                "status": "current",
                "docStatus": "final",
                "category": [
                    {
                        "coding": [
                            {
                                "system": "https://genomicsengland.co.uk/ngis-file-category",
                                "code": "index"
                            }
                        ]
                    }
                ],
                "subject": {
                    "reference": "urn:uuid:394cc903-8629-450d-ba42-d22620382edb",
                    "identifier": {
                        "system": "https://genomicsengland.co.uk/ngis-participant-id",
                        "value": "p12345678301"
                    }
                },
                "author": [
                    {
                        "identifier": {
                            "system": "https://fhir.nhs.uk/Id/ods-organization-code",
                            "value": "8J834"
                        }
                    }
                ],
                "relatesTo": [
                    {
                        "code": "appends",
                        "target": {
                            "reference": "urn:uuid:8dbef4bd-32eb-4e73-8247-0796a16b21d7"
                        }
                    }
                ],
                "content": [
                    {
                        "attachment": {
                            "contentType": "application/octet-stream",
                            "url": "https://sandbox.api.service.nhs.uk/genomic-data-access/ga4gh/drs/v1.4/objects/509cadeb-a0a5-4769-9477-ed93d3e4583d"
                        }
                    }
                ],
                "context": {
                    "related": [
                        {
                            "reference": "urn:uuid:56118d9f-a505-4597-b1fc-a697318976b8",
                            "identifier": {
                                "system": "https://genomicsengland.co.uk/ngis-sample-id",
                                "value": "LP1000000-DNA_B05"
                            }
                        },
                        {
                            "reference": "urn:uuid:06c744c1-9556-4085-8d4f-8deda713ba63",
                            "identifier": {
                                "system": "https://genomicsengland.co.uk/ngis-referral-id",
                                "value": "r30000000001"
                            }
                        }
                    ]
                }
            },
            "request": {
                "method": "POST",
                "url": "DocumentReference"
            }
        },
        {
            "fullUrl": "urn:uuid:e7e420b2-9db9-4d96-a5e9-7d6ab9bdbeb6",
            "resource": {
                "resourceType": "DocumentReference",
                "id": "e7e420b2-9db9-4d96-a5e9-7d6ab9bdbeb6",
                "meta": {
                    "tag": [
                        {
                            "system": "https://genomicsengland.co.uk/workspace_id",
                            "code": "mr383",
                            "display": "workspace_id"
                        }
                    ]
                },
                "identifier": [
                    {
                        "system": "https://genomicsengland.co.uk/ngis-weka-file-path",
                        "value": "/genomes/bertha-dev/by_name/LP1000000-DNA_E11/BE00002844/LP1000000-DNA_E11.cram"
                    }
                ],
                "status": "current",
                "docStatus": "final",
                "category": [
                    {
                        "coding": [
                            {
                                "system": "https://genomicsengland.co.uk/ngis-file-category",
                                "code": "CRAM"
                            }
                        ]
                    }
                ],
                "subject": {
                    "reference": "urn:uuid:394cc903-8629-450d-ba42-d22620382edb",
                    "identifier": {
                        "system": "https://genomicsengland.co.uk/ngis-participant-id",
                        "value": "p12345678301"
                    }
                },
                "author": [
                    {
                        "identifier": {
                            "system": "https://fhir.nhs.uk/Id/ods-organization-code",
                            "value": "8J834"
                        }
                    }
                ],
                "relatesTo": [
                    {
                        "code": "transforms",
                        "target": {
                            "reference": "urn:uuid:99934ae6-1123-4de9-b2d1-04d25ce75728"
                        }
                    }
                ],
                "content": [
                    {
                        "attachment": {
                            "contentType": "application/cram",
                            "url": "https://sandbox.api.service.nhs.uk/genomic-data-access/ga4gh/drs/v1.4/objects/d21ddf59-7b22-47a5-a644-9315d691c5ba"
                        }
                    }
                ],
                "context": {
                    "related": [
                        {
                            "reference": "urn:uuid:b36fdd1f-1dc1-419d-90cd-15d9599324ed",
                            "identifier": {
                                "system": "https://genomicsengland.co.uk/ngis-sample-id",
                                "value": "LP1000000-DNA_E11"
                            }
                        },
                        {
                            "reference": "urn:uuid:06c744c1-9556-4085-8d4f-8deda713ba63",
                            "identifier": {
                                "system": "https://genomicsengland.co.uk/ngis-referral-id",
                                "value": "r30000000001"
                            }
                        }
                    ]
                }
            },
            "request": {
                "method": "POST",
                "url": "DocumentReference"
            }
        },
        {
            "fullUrl": "urn:uuid:99934ae6-1123-4de9-b2d1-04d25ce75728",
            "resource": {
                "resourceType": "DocumentReference",
                "id": "99934ae6-1123-4de9-b2d1-04d25ce75728",
                "meta": {
                    "tag": [
                        {
                            "system": "https://genomicsengland.co.uk/workspace_id",
                            "code": "mr383",
                            "display": "workspace_id"
                        }
                    ]
                },
                "identifier": [
                    {
                        "system": "https://genomicsengland.co.uk/ngis-weka-file-path",
                        "value": "/genomes/bertha-dev/by_name/LP1000000-DNA_E11/BE00002844/LP1000000-DNA_E11.cram.crai"
                    }
                ],
                "status": "current",
                "docStatus": "final",
                "category": [
                    {
                        "coding": [
                            {
                                "system": "https://genomicsengland.co.uk/ngis-file-category",
                                "code": "index"
                            }
                        ]
                    }
                ],
                "subject": {
                    "reference": "urn:uuid:394cc903-8629-450d-ba42-d22620382edb",
                    "identifier": {
                        "system": "https://genomicsengland.co.uk/ngis-participant-id",
                        "value": "p12345678301"
                    }
                },
                "author": [
                    {
                        "identifier": {
                            "system": "https://fhir.nhs.uk/Id/ods-organization-code",
                            "value": "8J834"
                        }
                    }
                ],
                "relatesTo": [
                    {
                        "code": "appends",
                        "target": {
                            "reference": "urn:uuid:e7e420b2-9db9-4d96-a5e9-7d6ab9bdbeb6"
                        }
                    }
                ],
                "content": [
                    {
                        "attachment": {
                            "contentType": "application/octet-stream",
                            "url": "https://sandbox.api.service.nhs.uk/genomic-data-access/ga4gh/drs/v1.4/objects/150b86d5-d6c6-4e28-99c2-5779c3e3254b"
                        }
                    }
                ],
                "context": {
                    "related": [
                        {
                            "reference": "urn:uuid:b36fdd1f-1dc1-419d-90cd-15d9599324ed",
                            "identifier": {
                                "system": "https://genomicsengland.co.uk/ngis-sample-id",
                                "value": "LP1000000-DNA_E11"
                            }
                        },
                        {
                            "reference": "urn:uuid:06c744c1-9556-4085-8d4f-8deda713ba63",
                            "identifier": {
                                "system": "https://genomicsengland.co.uk/ngis-referral-id",
                                "value": "r30000000001"
                            }
                        }
                    ]
                }
            },
            "request": {
                "method": "POST",
                "url": "DocumentReference"
            }
        },
        {
            "fullUrl": "urn:uuid:633d5635-043f-40e0-906f-d76f319cfacd",
            "resource": {
                "resourceType": "DocumentReference",
                "id": "633d5635-043f-40e0-906f-d76f319cfacd",
                "meta": {
                    "tag": [
                        {
                            "system": "https://genomicsengland.co.uk/workspace_id",
                            "code": "mr383",
                            "display": "workspace_id"
                        }
                    ]
                },
                "identifier": [
                    {
                        "system": "https://genomicsengland.co.uk/ngis-weka-file-path",
                        "value": "/genomes/bertha-dev/by_name/LP1000000-DNA_B07/BE00002845/LP1000000-DNA_B07.GRCh38DecoyAltHLA_NonN_Regions_autosomes_sex_mt.CHR_full_res.bw"
                    }
                ],
                "status": "current",
                "docStatus": "final",
                "category": [
                    {
                        "coding": [
                            {
                                "system": "https://genomicsengland.co.uk/ngis-file-category",
                                "code": "BigWig"
                            }
                        ]
                    }
                ],
                "subject": {
                    "reference": "urn:uuid:394cc903-8629-450d-ba42-d22620382edb",
                    "identifier": {
                        "system": "https://genomicsengland.co.uk/ngis-participant-id",
                        "value": "p12345678301"
                    }
                },
                "author": [
                    {
                        "identifier": {
                            "system": "https://fhir.nhs.uk/Id/ods-organization-code",
                            "value": "8J834"
                        }
                    }
                ],
                "content": [
                    {
                        "attachment": {
                            "contentType": "application/bigwig",
                            "url": "https://sandbox.api.service.nhs.uk/genomic-data-access/ga4gh/drs/v1.4/objects/a441d3b1-0c92-419c-825f-fb2706915b35"
                        }
                    }
                ],
                "context": {
                    "related": [
                        {
                            "reference": "urn:uuid:aeeec8c8-d2be-44f9-b0e4-d941e5cb594b",
                            "identifier": {
                                "system": "https://genomicsengland.co.uk/ngis-sample-id",
                                "value": "LP1000000-DNA_B07"
                            }
                        },
                        {
                            "reference": "urn:uuid:06c744c1-9556-4085-8d4f-8deda713ba63",
                            "identifier": {
                                "system": "https://genomicsengland.co.uk/ngis-referral-id",
                                "value": "r30000000001"
                            }
                        }
                    ]
                }
            },
            "request": {
                "method": "POST",
                "url": "DocumentReference"
            }
        },
        {
            "fullUrl": "urn:uuid:716fb254-fc7f-4ad2-93b3-34650fe7a935",
            "resource": {
                "resourceType": "DocumentReference",
                "id": "716fb254-fc7f-4ad2-93b3-34650fe7a935",
                "meta": {
                    "tag": [
                        {
                            "system": "https://genomicsengland.co.uk/workspace_id",
                            "code": "mr383",
                            "display": "workspace_id"
                        }
                    ]
                },
                "identifier": [
                    {
                        "system": "https://genomicsengland.co.uk/ngis-weka-file-path",
                        "value": "/genomes/bertha-dev/by_name/LP1000000-DNA_B05/BE00002843/LP1000000-DNA_B05.GRCh38DecoyAltHLA_NonN_Regions_autosomes_sex_mt.CHR_full_res.bw"
                    }
                ],
                "status": "current",
                "docStatus": "final",
                "category": [
                    {
                        "coding": [
                            {
                                "system": "https://genomicsengland.co.uk/ngis-file-category",
                                "code": "BigWig"
                            }
                        ]
                    }
                ],
                "subject": {
                    "reference": "urn:uuid:394cc903-8629-450d-ba42-d22620382edb",
                    "identifier": {
                        "system": "https://genomicsengland.co.uk/ngis-participant-id",
                        "value": "p12345678301"
                    }
                },
                "author": [
                    {
                        "identifier": {
                            "system": "https://fhir.nhs.uk/Id/ods-organization-code",
                            "value": "8J834"
                        }
                    }
                ],
                "content": [
                    {
                        "attachment": {
                            "contentType": "application/bigwig",
                            "url": "https://sandbox.api.service.nhs.uk/genomic-data-access/ga4gh/drs/v1.4/objects/df439d35-1145-4da5-a6c7-d00fdc62b337"
                        }
                    }
                ],
                "context": {
                    "related": [
                        {
                            "reference": "urn:uuid:56118d9f-a505-4597-b1fc-a697318976b8",
                            "identifier": {
                                "system": "https://genomicsengland.co.uk/ngis-sample-id",
                                "value": "LP1000000-DNA_B05"
                            }
                        },
                        {
                            "reference": "urn:uuid:06c744c1-9556-4085-8d4f-8deda713ba63",
                            "identifier": {
                                "system": "https://genomicsengland.co.uk/ngis-referral-id",
                                "value": "r30000000001"
                            }
                        }
                    ]
                }
            },
            "request": {
                "method": "POST",
                "url": "DocumentReference"
            }
        },
        {
            "fullUrl": "urn:uuid:f27f5cc3-81d6-437f-8d63-b8ac067f0ef6",
            "resource": {
                "resourceType": "DocumentReference",
                "id": "f27f5cc3-81d6-437f-8d63-b8ac067f0ef6",
                "meta": {
                    "tag": [
                        {
                            "system": "https://genomicsengland.co.uk/workspace_id",
                            "code": "mr383",
                            "display": "workspace_id"
                        }
                    ]
                },
                "identifier": [
                    {
                        "system": "https://genomicsengland.co.uk/ngis-weka-file-path",
                        "value": "/genomes/bertha-dev/by_name/LP1000000-DNA_E11/BE00002844/LP1000000-DNA_E11.GRCh38DecoyAltHLA_NonN_Regions_autosomes_sex_mt.CHR_full_res.bw"
                    }
                ],
                "status": "current",
                "docStatus": "final",
                "category": [
                    {
                        "coding": [
                            {
                                "system": "https://genomicsengland.co.uk/ngis-file-category",
                                "code": "BigWig"
                            }
                        ]
                    }
                ],
                "subject": {
                    "reference": "urn:uuid:394cc903-8629-450d-ba42-d22620382edb",
                    "identifier": {
                        "system": "https://genomicsengland.co.uk/ngis-participant-id",
                        "value": "p12345678301"
                    }
                },
                "author": [
                    {
                        "identifier": {
                            "system": "https://fhir.nhs.uk/Id/ods-organization-code",
                            "value": "8J834"
                        }
                    }
                ],
                "content": [
                    {
                        "attachment": {
                            "contentType": "application/bigwig",
                            "url": "https://sandbox.api.service.nhs.uk/genomic-data-access/ga4gh/drs/v1.4/objects/9512d625-f028-455d-9789-e9bc0842c3d2"
                        }
                    }
                ],
                "context": {
                    "related": [
                        {
                            "reference": "urn:uuid:b36fdd1f-1dc1-419d-90cd-15d9599324ed",
                            "identifier": {
                                "system": "https://genomicsengland.co.uk/ngis-sample-id",
                                "value": "LP1000000-DNA_E11"
                            }
                        },
                        {
                            "reference": "urn:uuid:06c744c1-9556-4085-8d4f-8deda713ba63",
                            "identifier": {
                                "system": "https://genomicsengland.co.uk/ngis-referral-id",
                                "value": "r30000000001"
                            }
                        }
                    ]
                }
            },
            "request": {
                "method": "POST",
                "url": "DocumentReference"
            }
        },
        {
            "fullUrl": "urn:uuid:8fa212bf-8517-45f1-9148-80984673ec4b",
            "resource": {
                "resourceType": "DocumentReference",
                "id": "8fa212bf-8517-45f1-9148-80984673ec4b",
                "meta": {
                    "tag": [
                        {
                            "system": "https://genomicsengland.co.uk/workspace_id",
                            "code": "mr383",
                            "display": "workspace_id"
                        }
                    ]
                },
                "status": "current",
                "docStatus": "final",
                "category": [
                    {
                        "coding": [
                            {
                                "system": "https://genomicsengland.co.uk/ngis-file-category",
                                "code": "InterpretationRequest"
                            }
                        ]
                    }
                ],
                "subject": {
                    "reference": "urn:uuid:394cc903-8629-450d-ba42-d22620382edb",
                    "identifier": {
                        "system": "https://genomicsengland.co.uk/ngis-participant-id",
                        "value": "p12345678301"
                    }
                },
                "author": [
                    {
                        "identifier": {
                            "system": "https://fhir.nhs.uk/Id/ods-organization-code",
                            "value": "8J834"
                        }
                    }
                ],
                "content": [
                    {
                        "attachment": {
                            "contentType": "application/json",
                            "url": "https://sandbox.api.service.nhs.uk/genomic-data-access/ga4gh/drs/v1.4/objects/001777f2-a9b4-491d-a39b-866702deb3cf"
                        }
                    }
                ],
                "context": {
                    "related": [
                        {
                            "reference": "urn:uuid:06c744c1-9556-4085-8d4f-8deda713ba63",
                            "identifier": {
                                "system": "https://genomicsengland.co.uk/ngis-referral-id",
                                "value": "r30000000001"
                            }
                        }
                    ]
                }
            },
            "request": {
                "method": "POST",
                "url": "DocumentReference"
            }
        },
        {
            "fullUrl": "urn:uuid:4f975c16-59cc-48a5-b169-65dd75f7c236",
            "resource": {
                "resourceType": "DocumentReference",
                "id": "4f975c16-59cc-48a5-b169-65dd75f7c236",
                "meta": {
                    "tag": [
                        {
                            "system": "https://genomicsengland.co.uk/workspace_id",
                            "code": "mr383",
                            "display": "workspace_id"
                        }
                    ]
                },
                "status": "current",
                "docStatus": "final",
                "category": [
                    {
                        "coding": [
                            {
                                "system": "https://genomicsengland.co.uk/ngis-file-category",
                                "code": "GenomicsEnglandTieringInterpretedGenome"
                            }
                        ]
                    }
                ],
                "subject": {
                    "reference": "urn:uuid:394cc903-8629-450d-ba42-d22620382edb",
                    "identifier": {
                        "system": "https://genomicsengland.co.uk/ngis-participant-id",
                        "value": "p12345678301"
                    }
                },
                "author": [
                    {
                        "identifier": {
                            "system": "https://fhir.nhs.uk/Id/ods-organization-code",
                            "value": "8J834"
                        }
                    }
                ],
                "content": [
                    {
                        "attachment": {
                            "contentType": "application/json",
                            "url": "https://sandbox.api.service.nhs.uk/genomic-data-access/ga4gh/drs/v1.4/objects/2df9b4dc-a1de-4020-a847-025d33e8f0c8"
                        }
                    }
                ],
                "context": {
                    "related": [
                        {
                            "reference": "urn:uuid:06c744c1-9556-4085-8d4f-8deda713ba63",
                            "identifier": {
                                "system": "https://genomicsengland.co.uk/ngis-referral-id",
                                "value": "r30000000001"
                            }
                        }
                    ]
                }
            },
            "request": {
                "method": "POST",
                "url": "DocumentReference"
            }
        },
        {
            "fullUrl": "urn:uuid:13a84a90-605d-4ac6-85c8-3a9b5d75da01",
            "resource": {
                "resourceType": "DocumentReference",
                "id": "13a84a90-605d-4ac6-85c8-3a9b5d75da01",
                "meta": {
                    "tag": [
                        {
                            "system": "https://genomicsengland.co.uk/workspace_id",
                            "code": "mr383",
                            "display": "workspace_id"
                        }
                    ]
                },
                "status": "current",
                "docStatus": "final",
                "category": [
                    {
                        "coding": [
                            {
                                "system": "https://genomicsengland.co.uk/ngis-file-category",
                                "code": "ExomiserInterpretedGenome"
                            }
                        ]
                    }
                ],
                "subject": {
                    "reference": "urn:uuid:394cc903-8629-450d-ba42-d22620382edb",
                    "identifier": {
                        "system": "https://genomicsengland.co.uk/ngis-participant-id",
                        "value": "p12345678301"
                    }
                },
                "author": [
                    {
                        "identifier": {
                            "system": "https://fhir.nhs.uk/Id/ods-organization-code",
                            "value": "8J834"
                        }
                    }
                ],
                "content": [
                    {
                        "attachment": {
                            "contentType": "application/json",
                            "url": "https://sandbox.api.service.nhs.uk/genomic-data-access/ga4gh/drs/v1.4/objects/8310aab0-85f8-4a54-b394-389e27b2031e"
                        }
                    }
                ],
                "context": {
                    "related": [
                        {
                            "reference": "urn:uuid:06c744c1-9556-4085-8d4f-8deda713ba63",
                            "identifier": {
                                "system": "https://genomicsengland.co.uk/ngis-referral-id",
                                "value": "r30000000001"
                            }
                        }
                    ]
                }
            },
            "request": {
                "method": "POST",
                "url": "DocumentReference"
            }
        },
        {
            "fullUrl": "urn:uuid:b43b0506-1a15-4b2f-b1a2-18272aa9836a",
            "resource": {
                "resourceType": "Composition",
                "id": "b43b0506-1a15-4b2f-b1a2-18272aa9836a",
                "meta": {
                    "tag": [
                        {
                            "system": "https://genomicsengland.co.uk/workspace_id",
                            "code": "mr383",
                            "display": "workspace_id"
                        }
                    ]
                },
                "identifier": {
                    "system": "https://genomicsengland.co.uk/ngis-interpretation-request-id",
                    "value": "SAP-961-1"
                },
                "status": "preliminary",
                "type": {
                    "coding": [
                        {
                            "system": "https://genomicsengland.co.uk/ngis-document-category",
                            "code": "InterpretationRequest"
                        }
                    ]
                },
                "subject": {
                    "reference": "urn:uuid:394cc903-8629-450d-ba42-d22620382edb",
                    "identifier": {
                        "system": "https://genomicsengland.co.uk/ngis-participant-id",
                        "value": "p12345678301"
                    }
                },
                "date": "2025-04-17T19:35:19.303357+00:00",
                "author": [
                    {
                        "identifier": {
                            "system": "https://fhir.nhs.uk/Id/ods-organization-code",
                            "value": "8J834"
                        }
                    }
                ],
                "title": "InterpretationRequest",
                "section": [
                    {
                        "title": "referral",
                        "entry": [
                            {
                                "reference": "urn:uuid:06c744c1-9556-4085-8d4f-8deda713ba63",
                                "identifier": {
                                    "system": "https://genomicsengland.co.uk/ngis-referral-id",
                                    "value": "r30000000001"
                                }
                            }
                        ]
                    },
                    {
                        "title": "proband",
                        "entry": [
                            {
                                "reference": "urn:uuid:394cc903-8629-450d-ba42-d22620382edb",
                                "identifier": {
                                    "system": "https://genomicsengland.co.uk/ngis-participant-id",
                                    "value": "p12345678301"
                                }
                            }
                        ]
                    },
                    {
                        "title": "relatives",
                        "entry": [
                            {
                                "reference": "urn:uuid:81a1bd97-4301-4e16-8124-f605278911eb",
                                "identifier": {
                                    "system": "https://genomicsengland.co.uk/ngis-participant-id",
                                    "value": "p12345678302"
                                }
                            },
                            {
                                "reference": "urn:uuid:95fa3518-51cf-4401-8147-e3b872738c19",
                                "identifier": {
                                    "system": "https://genomicsengland.co.uk/ngis-participant-id",
                                    "value": "p12345678303"
                                }
                            }
                        ]
                    },
                    {
                        "title": "relationships",
                        "entry": [
                            {
                                "reference": "urn:uuid:3f4c8784-2a2f-4b7c-ad27-7d062162fb37"
                            },
                            {
                                "reference": "urn:uuid:a3166c48-5c47-425a-8e1c-6dd3cb3e886a"
                            }
                        ]
                    },
                    {
                        "title": "observations",
                        "entry": [
                            {
                                "reference": "urn:uuid:8d74489b-f6cf-469f-a094-cfd33e745128"
                            },
                            {
                                "reference": "urn:uuid:359a295b-33cd-4ec0-864b-e473a59a5e73"
                            },
                            {
                                "reference": "urn:uuid:6eb2f71f-b188-429a-9e5a-db327e7cad10"
                            },
                            {
                                "reference": "urn:uuid:a91b3442-8c79-42c1-a757-8925d5dc2d3e"
                            },
                            {
                                "reference": "urn:uuid:6ef8d6ce-db9a-4ff4-8eb8-34fceeae6f51"
                            },
                            {
                                "reference": "urn:uuid:0f377d42-2cfc-49b9-852f-79c383a2e3ff"
                            },
                            {
                                "reference": "urn:uuid:b3117174-d170-4c13-9404-fb31b534ccbb"
                            },
                            {
                                "reference": "urn:uuid:b44cb8dc-cafc-42ba-ba1d-000e15a13f3a"
                            },
                            {
                                "reference": "urn:uuid:c3587d05-68a0-4015-ad2a-e1a46db4fd41"
                            }
                        ]
                    },
                    {
                        "title": "specimens",
                        "entry": [
                            {
                                "reference": "urn:uuid:56118d9f-a505-4597-b1fc-a697318976b8",
                                "identifier": {
                                    "system": "https://genomicsengland.co.uk/ngis-sample-id",
                                    "value": "LP1000000-DNA_B05"
                                }
                            },
                            {
                                "reference": "urn:uuid:b36fdd1f-1dc1-419d-90cd-15d9599324ed",
                                "identifier": {
                                    "system": "https://genomicsengland.co.uk/ngis-sample-id",
                                    "value": "LP1000000-DNA_E11"
                                }
                            },
                            {
                                "reference": "urn:uuid:aeeec8c8-d2be-44f9-b0e4-d941e5cb594b",
                                "identifier": {
                                    "system": "https://genomicsengland.co.uk/ngis-sample-id",
                                    "value": "LP1000000-DNA_B07"
                                }
                            }
                        ]
                    },
                    {
                        "title": "files",
                        "entry": [
                            {
                                "reference": "urn:uuid:3cb2e853-a982-4867-91dc-b71e0f6705e6"
                            },
                            {
                                "reference": "urn:uuid:5db0a15b-58a7-4341-945e-03bb49e04e2e"
                            },
                            {
                                "reference": "urn:uuid:64d06092-0f8d-4c58-95e2-4667a3d31de6"
                            },
                            {
                                "reference": "urn:uuid:0c670a9f-a735-4862-9b64-584f01e2c82f"
                            },
                            {
                                "reference": "urn:uuid:16a35e12-8341-45f0-93d0-47aa47f6cb54"
                            },
                            {
                                "reference": "urn:uuid:37fe93e9-addd-4cf1-9edc-cb7aa5a3f801"
                            },
                            {
                                "reference": "urn:uuid:cddfceed-11d9-495e-8716-1eef0da59baf"
                            },
                            {
                                "reference": "urn:uuid:f3658ea9-6944-4c84-9f40-f55502bcad3a"
                            },
                            {
                                "reference": "urn:uuid:1cb257bb-1a70-494b-9f99-efe1ef6a75f6"
                            },
                            {
                                "reference": "urn:uuid:a8e9977b-1766-4b65-bc8e-77fc4ef8b0e2"
                            },
                            {
                                "reference": "urn:uuid:e4af2299-0558-4cda-a2f3-d7ef1c04e023"
                            },
                            {
                                "reference": "urn:uuid:aaf190d9-e6ab-4b23-af74-97963fe36557"
                            },
                            {
                                "reference": "urn:uuid:d8270b68-31ca-4d97-bb22-f7a28dd0efcb"
                            },
                            {
                                "reference": "urn:uuid:0a861f9e-37da-43c7-8e5e-e6f32fcfcb73"
                            },
                            {
                                "reference": "urn:uuid:48ec7d0b-623e-4c6f-9828-20102225c805"
                            },
                            {
                                "reference": "urn:uuid:c666e2b2-1acd-4bcd-9a65-8c5dd5e75230"
                            },
                            {
                                "reference": "urn:uuid:45f38f7c-7e3f-48c2-8db6-a6a9fdc81b64"
                            },
                            {
                                "reference": "urn:uuid:aeca8507-df2a-4943-a4fd-f43685e9ba7c"
                            },
                            {
                                "reference": "urn:uuid:0d3790b2-4925-4d2c-8471-018d73cdcc5b"
                            },
                            {
                                "reference": "urn:uuid:eee0f614-ba5b-4c02-8556-02e714eec01f"
                            },
                            {
                                "reference": "urn:uuid:742dd8b7-4e27-4688-ad77-7dc08cbaa70f"
                            },
                            {
                                "reference": "urn:uuid:5df4a4d3-6ca7-4100-a452-11c34a2e5819"
                            },
                            {
                                "reference": "urn:uuid:8dbef4bd-32eb-4e73-8247-0796a16b21d7"
                            },
                            {
                                "reference": "urn:uuid:c85bc585-b35f-4ede-a51f-fb6bf0dc59ca"
                            },
                            {
                                "reference": "urn:uuid:e7e420b2-9db9-4d96-a5e9-7d6ab9bdbeb6"
                            },
                            {
                                "reference": "urn:uuid:99934ae6-1123-4de9-b2d1-04d25ce75728"
                            },
                            {
                                "reference": "urn:uuid:633d5635-043f-40e0-906f-d76f319cfacd"
                            },
                            {
                                "reference": "urn:uuid:716fb254-fc7f-4ad2-93b3-34650fe7a935"
                            },
                            {
                                "reference": "urn:uuid:f27f5cc3-81d6-437f-8d63-b8ac067f0ef6"
                            },
                            {
                                "reference": "urn:uuid:8fa212bf-8517-45f1-9148-80984673ec4b"
                            },
                            {
                                "reference": "urn:uuid:4f975c16-59cc-48a5-b169-65dd75f7c236"
                            },
                            {
                                "reference": "urn:uuid:13a84a90-605d-4ac6-85c8-3a9b5d75da01"
                            }
                        ]
                    }
                ]
            },
            "request": {
                "method": "POST",
                "url": "Composition"
            }
        }
    ]
}